Folder: thesis/Experimentelles/Rohdaten/Batterietests/AlteZelle/Batterietest Li vs LATP/ECLab-Export (part 2)

File: LATP vs Li Batterietest Probe1_02_GCPL_C01_loop5.mpt
EC-Lab ASCII FILE
Nb header lines : 3
mode	ox/red	error	control changes	Ns changes	counter inc.	Ns	time/s	control/V/mA	Ewe/V	dq/mA.h	<I>/mA	P/W	(Q-Qo)/mA.h	x	Capacity/mA.h
1	1	0	1	1	0	1	17659,81	0,100000001	1,21286619	0	0	0	0	0	0
1	1	0	1	0	0	1	17715,81	0,100000001	2,11741114	5,5563251572764582E-005	0,10001385404186333	0,000211770443	0,0015543954955052912	-5,7996585844273318E-005	0,0015543954955052912
1	1	0	1	0	0	1	17771,81	0,100000001	2,51754475	5,5563273722512851E-005	0,10001389391141069	0,000251789461	0,0031101656293317581	-0,00011604446129253059	0,0031101656293317581
1	1	0	1	0	0	1	17827,81	0,100000001	2,55455065	5,5563167325738406E-005	0,10001370239721437	0,000255490071	0,0046659362704637062	-0,00017409235566903741	0,0046659362704637062
1	1	0	1	0	0	1	17883,81	0,100000001	2,57477236	5,5563019779407315E-005	0,1000134368138152	0,000257511827	0,0062217050650855642	-0,00023214018114977018	0,0062217050650855642
1	1	0	1	0	0	1	17939,81	0,100000001	2,59121299	5,5562935111423334E-005	0,10001328441144219	0,000259155728	0,0077774693778942784	-0,00029018783940802861	0,0077774693778942784
1	1	0	1	0	0	1	17995,81	0,100000001	2,60658431	5,5562947162737453E-005	0,10001330610380786	0,000260693108	0,0093332318011715917	-0,00034823542716533005	0,0093332318011715917
1	1	0	1	0	0	1	18051,81	0,100000001	2,62170744	5,556290621434649E-005	0,10001323239670323	0,000262205431	0,01088899510045423	-0,00040628304760756794	0,01088899510045423
1	1	0	1	0	0	1	18107,81	0,100000001	2,63717437	5,5562929343018266E-005	0,10001327402831294	0,000263752445	0,012444754471691021	-0,00046433052148913395	0,012444754471691021
1	1	0	1	0	0	1	18163,81	0,100000001	2,65329051	5,556303580022521E-005	0,10001346565128776	0,000265364768	0,014000516537438157	-0,00052237809590650368	0,014000516537438157
1	1	0	1	0	0	1	18219,81	0,100000001	2,67022777	5,5563101380649536E-005	0,10001358369605298	0,000267059047	0,015556282622490806	-0,00058042582028956621	0,015556282622490806
1	1	0	1	0	0	1	18275,81	0,100000001	2,68836784	5,5563032042649056E-005	0,10001345888765059	0,000268872973	0,017112048328625136	-0,00063847353053467674	0,017112048328625136
1	1	0	1	0	0	1	18331,81	0,100000001	2,70767283	5,556303962113129E-005	0,10001347252891878	0,00027080375	0,018667813140360742	-0,00069652120740856832	0,018667813140360742
1	1	0	1	0	0	1	18387,81	0,100000001	2,7284863	5,5562997959968115E-005	0,10001339753882416	0,000272885198	0,020223576241499331	-0,00075456882045778534	0,020223576241499331
1	1	0	1	0	0	1	18443,81	0,100000001	2,75099921	5,5562995515349837E-005	0,1000133931385112	0,000275136757	0,021779340204711069	-0,00081261646567211059	0,021779340204711069
1	1	0	1	0	0	1	18499,81	0,100000001	2,77572703	5,556305269317495E-005	0,10001349605859765	0,000277610176	0,023335104609038576	-0,0008706641273450583	0,023335104609038576
1	1	0	1	0	0	1	18555,81	0,100000001	2,80352926	5,5562905203137133E-005	0,10001323057652637	0,000280390028	0,024890867449004934	-0,00092871173064958822	0,024890867449004934
1	1	0	1	0	0	1	18611,81	0,100000001	2,83541775	5,5562998907433619E-005	0,10001339924426208	0,000283579779	0,02644663120972521	-0,0009867593683086848	0,02644663120972521
1	1	0	1	0	0	1	18667,81	0,100000001	2,87265277	5,5562946238451533E-005	0,10001330444009318	0,000287303497	0,028002394731095994	-0,0010448069970373301	0,028002394731095994
1	1	0	1	0	0	1	18723,81	0,100000001	2,91630363	5,5562953160040909E-005	0,10001331689895421	0,000291669188	0,029558157295238125	-0,001102854590050487	0,029558157295238125
1	1	0	1	0	0	1	18779,81	0,100000001	2,96877646	5,5563050066431366E-005	0,10001349133045914	0,000296917686	0,031113919270067066	-0,0011609021610755768	0,031113919270067066
1	1	0	1	0	0	1	18835,81	0,100000001	3,03329825	5,55630112869872E-005	0,10001342152745878	0,000303370529	0,032669682955879194	-0,0012189497959397496	0,032669682955879194
1	1	0	1	0	0	1	18891,81	0,100000001	3,11487174	5,5562980857988198E-005	0,10001336675525994	0,000311528798	0,03422544546939255	-0,0012769973870638792	0,03422544546939255
1	1	0	1	0	0	1	18947,81	0,100000001	3,22121119	5,5562849084950157E-005	0,10001312956378859	0,000322163425	0,035781205370313901	-0,0013350448807086882	0,035781205370313901
1	1	0	1	0	0	1	19003,81	0,100000001	3,36346817	5,5563039588431514E-005	0,10001347247005918	0,000336392142	0,037336967298249306	-0,001393092449984117	0,037336967298249306
1	1	0	1	0	0	1	19059,81	0,100000001	3,55350089	5,5562924402041568E-005	0,10001326513455478	0,000355397235	0,038892733563935501	-0,0014511401811068602	0,038892733563935501
1	1	0	1	0	0	1	19115,81	0,100000001	3,80381584	5,5563056850184998E-005	0,10001350354121584	0,000380432961	0,040448498783818451	-0,0015091878732092781	0,040448498783818451
1	1	0	1	0	0	1	19171,81	0,100000001	4,11042309	5,5563106741756198E-005	0,10001359334604509	0,000411098183	0,042004262741450528	-0,0015672355182154182	0,042004262741450528
1	1	0	1	0	0	1	19227,81	0,100000001	4,38567019	5,5562996106015315E-005	0,10001339420170909	0,00043862575	0,043560024540227629	-0,001625283082671777	0,043560024540227629
1	0	0	0	0	0	2	19281,40	-0,100000001	3,7771728	-5,5545046433806419E-005	-0,099981084791341875	0,000377645832	0,043937744578873421	-0,0016393763251636448	0,00055545371053905946
1	0	0	0	0	0	2	19337,40	-0,100000001	2,56155276	-5,5545086514204742E-005	-0,09998115693605975	0,000256107014	0,042382484582832186	-0,0015813474836420422	0,0021107137065803008
1	0	0	0	0	0	2	19393,40	-0,100000001	2,44041467	-5,5545163508504634E-005	-0,099981295525801216	0,000243995819	0,040827223462814566	-0,0015233186001833696	0,0036659748265979187
1	0	0	0	0	0	2	19449,40	-0,100000001	2,41310906	-5,5545083254161811E-005	-0,099981151067982387	0,000241265428	0,039271959729407302	-0,001465289619215615	0,0052212385600051955
1	0	0	0	0	0	2	19505,40	-0,100000001	2,39943719	-5,5545035845703546E-005	-0,099981065732756493	0,000239898291	0,037716699528970125	-0,0014072607700677248	0,0067764987604423565
1	0	0	0	0	0	2	19561,40	-0,100000001	2,38618517	-5,5545103539195328E-005	-0,099981187581043174	0,00023857363	0,036161437994963482	-0,0013492318711625651	0,0083317602944490022
1	0	0	0	0	0	2	19617,40	-0,100000001	2,37123394	-5,5545119746277728E-005	-0,099981216753791846	0,000237078857	0,034606175042537222	-0,0012912029193342621	0,0098870232468752448
1	0	0	0	0	0	2	19673,40	-0,100000001	2,35437322	-5,5545136977814963E-005	-0,099981247770559232	0,000235393178	0,033050912509654835	-0,0012331739831597053	0,011442285779757632
1	0	0	0	0	0	2	19729,40	-0,100000001	2,33504915	-5,5545151217944096E-005	-0,099981273402791987	0,000233461193	0,031495648724030982	-0,00117514500024368	0,012997549565381466
1	0	0	0	0	0	2	19785,40	-0,100000001	2,31371999	-5,5545254945755002E-005	-0,099981460112853888	0,000231329104	0,029940382066781594	-0,001117115910183445	0,014552816222630842
1	0	0	0	0	0	2	19841,40	-0,100000001	2,29065347	-5,5545193511992698E-005	-0,099981349532080397	0,000229022626	0,028385115279073379	-0,0010590868152556157	0,016108083010339062
1	0	0	0	0	0	2	19897,40	-0,100000001	2,26571536	-5,5545290206869446E-005	-0,099981523582860646	0,000226529679	0,026829850033997942	-0,0010010577778854894	0,017663348255414496
1	0	0	0	0	0	2	19953,40	-0,100000001	2,23890615	-5,5545204677515558E-005	-0,099981369630021798	0,000223848896	0,025274584246057891	-0,00094302872026035469	0,019218614043354547
1	0	0	0	0	0	2	20009,40	-0,100000001	2,20974827	-5,5545041961388454E-005	-0,099981076740989453	0,000220933012	0,02371932074611497	-0,00088499974800346893	0,020773877543297469
1	0	0	0	0	0	2	20065,40	-0,100000001	2,17768788	-5,554506795770592E-005	-0,099981123534361459	0,000217727676	0,022164059229925565	-0,00082697084976309414	0,022329139059486874
1	0	0	0	0	0	2	20121,40	-0,100000001	2,14199948	-5,5545146538979475E-005	-0,099981264980655565	0,000214159823	0,020608797206220813	-0,00076894193258663936	0,023884401083191622
1	0	0	0	0	0	2	20177,40	-0,100000001	2,10195756	-5,5545136507186624E-005	-0,099981246923428224	0,000210156344	0,019053532557842506	-0,0007109129174800855	0,02543966573156993
1	0	0	0	0	0	2	20233,40	-0,100000001	2,05576706	-5,5545011696302227E-005	-0,0999810222638336	0,000205537697	0,01749826971053816	-0,0006528839695740224	0,026994928578874275
1	0	0	0	0	0	2	20289,40	-0,100000001	2,00254941	-5,5545128320240307E-005	-0,099981232186924672	0,000200217357	0,015943005585022144	-0,00059485497397616358	0,028550192704390291
1	0	0	0	0	0	2	20345,40	-0,100000001	1,94005179	-5,5545110922306778E-005	-0,099981200870643955	0,000193968706	0,014387744319934269	-0,00053682608510472442	0,030105453969478163
1	0	0	0	0	0	2	20401,40	-0,100000001	1,86617351	-5,5545104123651981E-005	-0,099981188633065152	0,000186582241	0,012832482297083856	-0,00047879716796014618	0,031660715992328582
1	0	0	0	0	0	2	20457,40	-0,100000001	1,77983212	-5,5545131024387142E-005	-0,09998123705438903	0,000177949812	0,011277220105123064	-0,00042076824450583232	0,033215978184289389
1	0	0	0	0	0	2	20513,40	-0,100000001	1,67922103	-5,5545111498485011E-005	-0,099981201907764774	0,000167890539	0,0097219556117346291	-0,00036273923518215885	0,034771242677677811
1	0	0	0	0	0	2	20569,40	-0,100000001	1,56778324	-5,5545132379978899E-005	-0,099981239494454221	0,000156748909	0,0081666922085619238	-0,00030471026653590003	0,036326506080850522
1	0	0	0	0	0	2	20625,40	-0,100000001	1,45170522	-5,5545132095201146E-005	-0,099981238981854285	0,000145143291	0,0066114295349409613	-0,0002466813251101976	0,037881768754471475
1	0	0	0	0	0	2	20681,40	-0,100000001	1,33900714	-5,5545003058595789E-005	-0,099981006715961805	0,000133875277	0,0050561659061096192	-0,00018865234804431171	0,039437032383302797
1	0	0	0	0	0	2	20737,40	-0,100000001	1,2631048	-5,5545073641671072E-005	-0,099981133765498854	0,000126286643	0,0035009053924724032	-0,00013062348721050701	0,040992292896940013
1	0	0	0	0	0	2	20793,40	-0,100000001	1,22860038	-5,5545135389599533E-005	-0,09998124491177143	0,000122836995	0,0019456452666561219	-7,2594640846822835E-005	0,042547553022756307
1	0	0	0	0	0	2	20849,40	-0,100000001	1,20730948	-5,5545091536309984E-005	-0,099981165975849293	0,00012070821	0,00039038158815134701	-1,456566192755432E-005	0,044102816701261069
1	0	0	0	0	0	2	20871,70	-0,100000001	1,20005345	-8,2373372241854669E-006	-0,099981167794127552	0,000119982746	-0,00022885182818037795	8,5387694039653747E-006	0,044722050117592787

File: LATP vs Li Batterietest Probe1_02_GCPL_C01_loop10.mpt
EC-Lab ASCII FILE
Nb header lines : 3
mode	ox/red	error	control changes	Ns changes	counter inc.	Ns	time/s	control/V/mA	Ewe/V	dq/mA.h	<I>/mA	P/W	(Q-Qo)/mA.h	x	Capacity/mA.h
1	1	0	1	1	0	1	33563,52	0,100000001	1,21208322	0	0	0	0	0	0
1	1	0	1	0	0	1	33619,52	0,100000001	2,13589501	5,5563021346926694E-005	0,1000134382381785	0,000213618201	0,0015543950107451094	-5,7996567757219174E-005	0,0015543950107451094
1	1	0	1	0	0	1	33675,52	0,100000001	2,51762128	5,5563109919842746E-005	0,1000135976694271	0,000251796358	0,0031101611814620576	-0,00011604429533653184	0,0031101611814620576
1	1	0	1	0	0	1	33731,52	0,100000001	2,55277491	5,5563169661495418E-005	0,10001370520440171	0,00025531248	0,0046659284975538624	-0,00017409206565132038	0,0046659284975538624
1	1	0	1	0	0	1	33787,52	0,100000001	2,57259536	5,5563092396077184E-005	0,10001356612664914	0,00025729445	0,0062216970162517466	-0,00023213988083695866	0,0062216970162517466
1	1	0	1	0	0	1	33843,52	0,100000001	2,58895969	5,5563154027279878E-005	0,10001367706281379	0,000258931366	0,0077774657142594432	-0,00029018770271288717	0,0077774657142594432
1	1	0	1	0	0	1	33899,52	0,100000001	2,60415936	5,5563231757117645E-005	0,1000138169765215	0,000260451925	0,0093332349293105267	-0,00034823554388039955	0,0093332349293105267
1	1	0	1	0	0	1	33955,52	0,100000001	2,61930156	5,5563161922825709E-005	0,10001369127479627	0,000261966023	0,010889004053678525	-0,0004062833816644041	0,010889004053678525
1	1	0	1	0	0	1	34011,52	0,100000001	2,63522673	5,5563160345786144E-005	0,10001368843612506	0,000263558759	0,012444772097596024	-0,0004643311791353479	0,012444772097596024
1	1	0	1	0	0	1	34067,52	0,100000001	2,65161014	5,5563078403472896E-005	0,10001354093996149	0,000265196926	0,014000537706335555	-0,00052237888574652755	0,014000537706335555
1	1	0	1	0	0	1	34123,52	0,100000001	2,66898656	5,5563167456537485E-005	0,10001370123547742	0,000266935211	0,015556304737438931	-0,00058042664542801446	0,015556304737438931
1	1	0	1	0	0	1	34179,52	0,100000001	2,68762326	5,5563168521556589E-005	0,10001370315251182	0,000268799165	0,017112073573855226	-0,00063847447246815398	0,017112073573855226
1	1	0	1	0	0	1	34235,52	0,100000001	2,70746279	5,5563167779395974E-005	0,10001370181662272	0,000270783377	0,018667842087802128	-0,00069652228747652672	0,018667842087802128
1	1	0	1	0	0	1	34291,52	0,100000001	2,72896361	5,5563090873261293E-005	0,10001356338558056	0,000272933365	0,02022360818285967	-0,00075457001223288512	0,02022360818285967
1	1	0	1	0	0	1	34347,52	0,100000001	2,75206852	5,5563126051177581E-005	0,10001362670582974	0,000275244354	0,021779372449966109	-0,00081261766878593037	0,021779372449966109
1	1	0	1	0	0	1	34403,52	0,100000001	2,77761745	5,5562961592856384E-005	0,10001333068085213	0,000277798768	0,023335139288405334	-0,00087066542127885901	0,023335139288405334
1	1	0	1	0	0	1	34459,52	0,100000001	2,80664182	5,5562975674453709E-005	0,1000133560277273	0,000280701672	0,024890903760553402	-0,00092871308548228288	0,024890903760553402
1	1	0	1	0	0	1	34515,52	0,100000001	2,84011507	5,5563041009422803E-005	0,10001347363067144	0,000284049776	0,026446667909587181	-0,0009867607376298784	0,026446667909587181
1	1	0	1	0	0	1	34571,52	0,100000001	2,87912607	5,5563071625514163E-005	0,10001352873963578	0,000287951552	0,028002433193700768	-0,0010448084321288274	0,028002433193700768
1	1	0	1	0	0	1	34627,52	0,100000001	2,92535472	5,556299846950505E-005	0,10001339705881962	0,000292574667	0,029558196781079142	-0,001102856063320305	0,029558196781079142
1	1	0	1	0	0	1	34683,52	0,100000001	2,98172283	5,5563033069173498E-005	0,1000134593382227	0,000298212428	0,031113960493497715	-0,0011609036991771998	0,031113960493497715
1	1	0	1	0	0	1	34739,52	0,100000001	3,05168653	5,5563042954438259E-005	0,10001347713169925	0,000305209775	0,032669727033027923	-0,001218951440517431	0,032669727033027923
1	1	0	1	0	0	1	34795,52	0,100000001	3,14160466	5,5563049193471674E-005	0,10001348836195938	0,000314202829	0,034225493659287872	-0,0012769991850936656	0,034225493659287872
1	1	0	1	0	0	1	34851,52	0,100000001	3,26100492	5,5563160128477542E-005	0,10001368804496957	0,00032614512	0,035781260947711104	-0,0013350469543761027	0,035781260947711104
1	1	0	1	0	0	1	34907,52	0,100000001	3,4225862	5,5563061621040109E-005	0,10001351073158251	0,000342304847	0,037337027874288205	-0,0013930947101575736	0,037337027874288205
1	1	0	1	0	0	1	34963,52	0,100000001	3,64030623	5,5563001970036166E-005	0,10001340335977562	0,000364079402	0,038892792694274477	-0,0014511423873393085	0,038892792694274477
1	1	0	1	0	0	1	35019,52	0,100000001	3,92793274	5,556300176887049E-005	0,10001340299767741	0,000392845919	0,040448556223253139	-0,0015091900163518141	0,040448556223253139
1	1	0	1	0	0	1	35075,52	0,100000001	4,25954866	5,5563158130066259E-005	0,10001368444782928	0,000426013168	0,042004322157925754	-0,0015672377351239955	0,042004322157925754
1	1	0	1	0	0	1	35129,74	0,100000001	4,49997234	6,3008199387954342E-006	0,10001301466873603	0,000450055813	0,043510828292403923	-0,001623447504520416	0,043510828292403923
1	0	0	0	0	0	2	35183,75	-0,100000001	2,81446481	-5,5544995211478733E-005	-0,099980991194432614	0,000281392975	0,042011112602002227	-0,0015674910957223379	0,0014997156904016934
1	0	0	0	0	0	2	35239,75	-0,100000001	2,46798778	-5,5544933501217094E-005	-0,099980880115961869	0,000246751588	0,040455854168142016	-0,0015094623124878093	0,0030549741242619034
1	0	0	0	0	0	2	35295,75	-0,100000001	2,41963959	-5,5544928693936934E-005	-0,0999808714628576	0,000241917674	0,038900595176783827	-0,0014514335084522819	0,0046102331156200838
1	0	0	0	0	0	2	35351,75	-0,100000001	2,4049747	-5,5544834330677984E-005	-0,099980701608991808	0,00024045106	0,037345340576496934	-0,0013934048682535283	0,0061654877159069811
1	0	0	0	0	0	2	35407,75	-0,100000001	2,39166546	-5,5544944171690278E-005	-0,099980899322813568	0,000239120869	0,035790084186409203	-0,0013353761612748989	0,0077207441059946995
1	0	0	0	0	0	2	35463,75	-0,100000001	2,3773253	-5,5544831964290803E-005	-0,099980697349494886	0,000237686647	0,03423482825559017	-0,0012773474714322026	0,0092760000368137267
1	0	0	0	0	0	2	35519,75	-0,100000001	2,36067438	-5,5544966053631571E-005	-0,099980938710307814	0,000236022446	0,032679572507112499	-0,0012193187883929075	0,010831255785291389
1	0	0	0	0	0	2	35575,75	-0,100000001	2,34165597	-5,5544882951925197E-005	-0,099980789127236634	0,000234120613	0,03112431487793984	-0,0011612900351823534	0,012386513414464061
1	0	0	0	0	0	2	35631,75	-0,100000001	2,32026958	-5,5544811468985344E-005	-0,099980660457945126	0,000231982092	0,029569058364059059	-0,0011032613235848389	0,013941769928344829
1	0	0	0	0	0	2	35687,75	-0,100000001	2,29710746	-5,5544765304360122E-005	-0,099980577361619891	0,000229666126	0,028013805198286666	-0,0010452327369097501	0,015497023094117222
1	0	0	0	0	0	2	35743,75	-0,100000001	2,27207398	-5,5544665457887782E-005	-0,09998039763797001	0,000227162862	0,026458552785048166	-0,0009872041783127127	0,017052275507355718
1	0	0	0	0	0	2	35799,75	-0,100000001	2,24492121	-5,5544930101268819E-005	-0,099980873996054989	0,000224449192	0,024903297691581267	-0,00092917551971274995	0,018607530600822618
1	0	0	0	0	0	2	35855,75	-0,100000001	2,21566772	-5,5544738882117798E-005	-0,099980529801583782	0,000221523631	0,023348041680276922	-0,00087114682686703821	0,020162786612126966
1	0	0	0	0	0	2	35911,75	-0,100000001	2,18337822	-5,5544705454674029E-005	-0,099980469632185126	0,000218295187	0,021792788906544566	-0,0008131182548194903	0,021718039385859322
1	0	0	0	0	0	2	35967,75	-0,100000001	2,14721251	-5,5544533814407053E-005	-0,099980160679705139	0,000214678657	0,020237540610276272	-0,00075508984983214656	0,023273287682127616
1	0	0	0	0	0	2	36023,75	-0,100000001	2,10663581	-5,554451653402713E-005	-0,099980129575021325	0,000210621714	0,018682292713526339	-0,00069706145975136986	0,024828535578877549
1	0	0	0	0	0	2	36079,75	-0,100000001	2,05977678	-5,5544461150550182E-005	-0,099980029884763008	0,000205936551	0,017127045011621494	-0,0006390330769405257	0,02638378328078239
1	0	0	0	0	0	2	36135,75	-0,100000001	2,00562382	-5,5544555875162278E-005	-0,099980200389064486	0,000200522671	0,015571797560261472	-0,00058100470347784538	0,027939030732142416
1	0	0	0	0	0	2	36191,75	-0,100000001	1,94219041	-5,5544537851793901E-005	-0,099980167947001446	0,000194180524	0,014016551198363005	-0,00052297637066444077	0,029494277094040877
1	0	0	0	0	0	2	36247,75	-0,100000001	1,86655545	-5,5544586632400755E-005	-0,099980255752093619	0,000186618694	0,012461304953619123	-0,00046494804222223104	0,031049523338784749
1	0	0	0	0	0	2	36303,75	-0,100000001	1,777789	-5,5544566731899974E-005	-0,099980219931192282	0,000177743728	0,010906056524266501	-0,00040691963226933203	0,03260477176813737
1	0	0	0	0	0	2	36359,75	-0,100000001	1,67374086	-5,5544467065483328E-005	-0,09998004053164265	0,00016734068	0,0093508092977144947	-0,00034889126719454125	0,034160018994689376
1	0	0	0	0	0	2	36415,75	-0,100000001	1,55846488	-5,5544510135220154E-005	-0,099980118057168806	0,000155815505	0,007795563974921193	-0,00029086297315154726	0,035715264317482694
1	0	0	0	0	0	2	36471,75	-0,100000001	1,43677306	-5,5544507238599987E-005	-0,099980112843252506	0,000143648736	0,0062403146234184819	-0,00023283452879198861	0,037270513668985408
1	0	0	0	0	0	2	36527,75	-0,100000001	1,31951118	-5,5544583958884077E-005	-0,09998025093976361	0,000131925059	0,0046850667252450643	-0,00017480613865809994	0,038825761567158816
1	0	0	0	0	0	2	36583,75	-0,100000001	1,2505213	-5,5544503127949101E-005	-0,099980105444080922	0,000125027247	0,0031298212479312666	-0,00011677783884973853	0,040381007044472608
1	0	0	0	0	0	2	36639,75	-0,100000001	1,22023678	-5,5544725975228678E-005	-0,099980506569183424	0,000121999889	0,0015745722019218182	-5,874940588854423E-005	0,041936256090482067
1	0	0	0	0	0	2	36695,75	-0,100000001	1,20037806	-5,5544776090317306E-005	-0,099980596776342771	0,000120014513	1,9318924429625658E-005	-7,2081504503948134E-007	0,043491509367974259
1	0	0	0	0	0	2	36696,74	-0,100000001	1,19995797	-2,7644638264758717E-005	-0,099980608375636224	0,00011997253	-8,3257138351330624E-006	3,1064357723012013E-007	0,043519154006239021