Folder: thesis/Experimentelles/Rohdaten/Batterietests/AlteZelle/Batterietest Li vs LATP/ZView-Export (part 2)

File: LATP_LP30_Li_Entladen_C01.txt
EC-Lab ASCII FILE
Nb header lines : 68

Galvanostatic Cycling with Potential Limitation

Run on channel : 1 (SN 6985)
Grouped channel(s) : 1
User :
CE vs. WE compliance from -10 V to 10 V
Electrode connection : standard
Ewe ctrl range : min = 0,00 V, max = 5,00 V
Acquisition started on : 07.07.2015 15:32:27
Saved on :
	File : LATP_LP30_Li_Entladen_C01.mpr
	Directory : C:\Hupfer\Batterietest Li vs LATP\
	Host : 192.168.0.2
Device : VMP3 (SN 0324)
Address : 192.168.0.1
EC-Lab for windows v10.33 (software)
Internet server v10.33 (firmware)
Command interpretor v10.32 (firmware)
Electrode material :
Initial state :
Electrolyte :
Comments :
Mass of active material : 0,001 mg
 at x = 0,000
Molecular weight of active material (at x = 0) : 0,001 g/mol
Atomic weight of intercalated ion : 0,001 g/mol
Acquisition started at : xo = 0,000
Number of e- transfered per intercalated ion : 1
for DX = 1, DQ = 26,801 mA.h
Battery capacity : 0,000 A.h
Electrode surface area : 0,001 cm²
Characteristic mass : 0,001 g
Ns                  0                   1
Set I/C             I                   I
Is                  0,000               -500,000
unit Is             mA                  nA
vs.                 <None>              <None>
N                   1                   1
I sign              > 0                 > 0
t1 (h:m:s)          0:00:0,0000         10:00:0,0000
I Range             100 µA              100 µA
Bandwidth           5                   5
dE1 (mV)            0,00                10,00
dt1 (s)             0,0000              10,0000
EM (V)              0,000               1,000
tM (h:m:s)          0:00:0,0000         24:00:0,0000
Im                  0,000               0,000
unit Im             mA                  mA
E range min (V)     0,000               0,000
E range max (V)     5,000               5,000
dq                  0,000               1,000
unit dq             mA.h                mA.h
dtq (s)             0,0000              120,0000
dQM                 0,000               0,000
unit dQM            mA.h                mA.h
dxM                 0,000               0,000
tR (h:m:s)          0:00:10,0000        0:15:0,0000
dER/dt (mV/h)       0,0                 0,1
dER (mV)            0,00                5,00
dtR (s)             1,0000              120,0000
EL (V)              pass                1,100
goto Ns'            0                   0
nc cycles           0                   0

mode	ox/red	error	control changes	Ns changes	counter inc.	Ns	time/s	control/V/mA	Ewe/V	dq/mA.h	<I>/mA	P/W	(Q-Qo)/mA.h	x	Capacity/mA.h
3	1	0	0	0	0	0	0,0000	0	3,76500797	0	0	0	0	0	0
1	0	0	0	0	0	1	453,9704	-0,000500000024	2,92179608	-1,4029177375196014E-006	-0,00050505039826570272	1,47565424E-006	-6,2285877350339456E-005	2,3239698281939242E-006	6,2285877350339456E-005
1	0	0	0	0	0	1	1513,9704	-0,000500000024	2,5778203	-1,402824434519668E-006	-0,00050501680918487814	1,30184253E-006	-0,00021104842278882918	7,874500411873559E-006	0,00021104842278882918
1	0	0	0	0	0	1	2573,9703	-0,000500000024	2,48169661	-1,4030038665255739E-006	-0,0005050814047086361	1,25345878E-006	-0,00035977560119910515	1,3423711404179064E-005	0,00035977560119910515
1	0	0	0	0	0	1	3633,9703	-0,000500000024	2,34673381	-1,4029888456958966E-006	-0,00050507599720981568	1,18527896E-006	-0,0005085481672843543	1,8974615871662195E-005	0,0005085481672843543
1	0	0	0	0	0	1	4693,9703	-0,000500000024	2,26823473	-1,4030690717691968E-006	-0,00050510487195231334	1,14569639E-006	-0,0006573184651590944	2,4525435709161594E-005	0,0006573184651590944
1	0	0	0	0	0	1	5753,9703	-0,000500000024	2,19300079	-1,4027977169769451E-006	-0,00050500718422592	1,10748113E-006	-0,0008060801954034647	3,0075935876852595E-005	0,0008060801954034647
1	0	0	0	0	0	1	6813,9703	-0,000500000024	2,09655237	-1,4040441921291251E-006	-0,0005054559152861376	1,0597148E-006	-0,00095491592597045056	3,5629197096074874E-005	0,00095491592597045056
1	0	0	0	0	0	1	7873,9703	-0,000500000024	1,99819446	-1,4040464540691269E-006	-0,0005054567295845481	1,0100008E-006	-0,0011038106336306429	4,118465882994023E-005	0,0011038106336306429
1	0	0	0	0	0	1	8933,9702	-0,000500000024	1,91270649	-1,4049421617075699E-006	-0,00050577918433829152	9,67407118E-007	-0,0012526950489306614	4,6739736542009274E-005	0,0012526950489306614
1	0	0	0	0	0	1	9993,9702	-0,000500000024	1,83657515	-1,4051623770533802E-006	-0,0005058584618637431	9,29047076E-007	-0,0014016876460328632	5,229885066256976E-005	0,0014016876460328632
1	0	0	0	0	0	1	11053,9702	-0,000500000024	1,78079498	-1,4058291739687168E-006	-0,00050609850875617062	9,01257692E-007	-0,0015506877455296851	5,7858244707560602E-005	0,0015506877455296851
1	0	0	0	0	0	1	12113,9702	-0,000500000024	1,72131431	-1,4051590199976797E-006	-0,00050585725332367635	8,70739314E-007	-0,0016996629840307632	6,3416711155374272E-005	0,0016996629840307632
1	0	0	0	0	0	1	13173,9702	-0,000500000024	1,67625034	-1,4045219099110302E-006	-0,00050562789368970573	8,47558908E-007	-0,0018485927342052576	6,8973480372563405E-005	0,0018485927342052576
1	0	0	0	0	0	1	14233,9702	-0,000500000024	1,63342047	-1,4047676430070877E-006	-0,00050571635760535738	8,26047426E-007	-0,001997506942571425	7,4529669703987661E-005	0,001997506942571425
1	0	0	0	0	0	1	15293,9702	-0,000500000024	1,59313023	-1,4044644087035622E-006	-0,00050560719325476653	8,05498132E-007	-0,0021464032482162186	8,0085191060807002E-005	0,0021464032482162186
1	0	0	0	0	0	1	16353,9701	-0,000500000024	1,56072617	-1,4051597617476042E-006	-0,00050585752035365242	7,89505066E-007	-0,0022952770226118986	8,5639871746428326E-005	0,0022952770226118986
1	0	0	0	0	0	1	17413,9701	-0,000500000024	1,53506255	-1,4047940787568222E-006	-0,00050572587447537702	7,7632086E-007	-0,0024441745524713523	9,1195438780342618E-005	0,0024441745524713523
1	0	0	0	0	0	1	18473,9701	-0,000500000024	1,5167315	-1,4039577806640107E-006	-0,00050542480715831974	7,66593701E-007	-0,0025930220096074928	9,6749137533626598E-005	0,0025930220096074928
1	0	0	0	0	0	1	19533,9701	-0,000500000024	1,49318743	-1,4038046087047811E-006	-0,00050536966525232941	7,54611619E-007	-0,00274184631333652	0,00010230197240216109	0,00274184631333652
1	0	0	0	0	0	1	20593,9701	-0,000500000024	1,46905148	-1,4043713884635106E-006	-0,00050557370596794246	7,4271378E-007	-0,0028906736526974323	0,00010785492053420267	0,0028906736526974323
1	0	0	0	0	0	1	21653,9701	-0,000500000024	1,44718778	-1,4035801524264067E-006	-0,00050528886099113638	7,31247837E-007	-0,0030395064915509414	0,00011340807385970717	0,0030395064915509414
1	0	0	0	0	0	1	22713,9701	-0,000500000024	1,42782557	-1,4029480969669142E-006	-0,00050506132102296429	7,21139486E-007	-0,003188259068649319	0,00011895823251121464	0,003188259068649319
1	0	0	0	0	0	1	23773,9701	-0,000500000024	1,40918899	-1,4033197177955626E-006	-0,00050519510452289734	7,11915391E-007	-0,0033370054957486624	0,00012450816169798939	0,0033370054957486624
1	0	0	0	0	0	1	24833,9700	-0,000500000024	1,39125884	-1,4026080719292318E-006	-0,00050493891200791661	7,02500699E-007	-0,0034857241668099846	0,0001300570552696672	0,0034857241668099846
1	0	0	0	0	0	1	25893,9700	-0,000500000024	1,37416887	-1,403809839549164E-006	-0,00050537154835633018	6,94465825E-007	-0,0036344386305268538	0,00013560579185966661	0,0036344386305268538
[...]
1	0	0	1	0	0	1	37936,0566	-0,000500000024	1,18306708	-1,4004571585844842E-006	-0,00050416457615133453	5,96460495E-007	-0,0051963218878339629	0,00019388175616416854	0,0051963218878339629
1	0	0	1	0	0	1	38996,0566	-0,000500000024	1,15093029	-1,4008543680118034E-006	-0,00050430757154490317	5,80422864E-007	-0,0053448249227858867	0,00019942260406267885	0,0053448249227858867
1	0	0	1	0	0	1	40056,0566	-0,000500000024	1,12557232	-1,4009580960878843E-006	-0,00050434491365222278	5,67676693E-007	-0,0054933688388224422	0,00020496497728942195	0,0054933688388224422
1	0	0	1	0	0	1	41116,0566	-0,000500000024	1,10143638	-1,4010570533217915E-006	-0,00050438053825636301	5,55543068E-007	-0,0056418760737752947	0,00021050598189561389	0,0056418760737752947
1	0	0	1	0	0	1	42176,0566	-0,000500000024	1,07829332	-1,4010019553372534E-006	-0,00050436070298196621	5,43848785E-007	-0,0057903558928630874	0,00021604596357901942	0,0057903558928630874
1	0	0	1	0	0	1	43236,0566	-0,000500000024	1,05623865	-1,3998230884931722E-006	-0,00050393631091888749	5,32276999E-007	-0,0059388070081546022	0,00022158487428519312	0,0059388070081546022
1	0	0	1	0	0	1	44296,0566	-0,000500000024	1,03508151	-1,4000726385598277E-006	-0,00050402614894271622	5,21708159E-007	-0,0060872787943647014	0,00022712455625113155	0,0060872787943647014
1	0	0	1	0	0	1	45356,0566	-0,000500000024	1,01560473	-1,4002949745788808E-006	-0,00050410618990942611	5,11972644E-007	-0,0062357061902462784	0,00023266258195422941	0,0062357061902462784
2	1	0	0	0	0	1	48049,0850	0,999955177	0,999889612	-1,3761873911720208E-005	-0,00041285621658260166	4,12810635E-007	-0,0065866290484704653	0,00024575598561537475	0,0065866290484704653
2	1	0	0	0	0	1	60769,0850	0,999955177	0,999927759	-7,8481600849764723E-006	-0,00023544480211074406	2,35427791E-007	-0,0076347768514249434	0,00028486378939331546	0,0076347768514249434
2	1	0	0	0	0	1	73489,0965	0,999955177	0,999946892	-6,1079139060416819E-006	-0,00018323715517038835	1,83227428E-007	-0,0083643696807968154	0,00031208587880517197	0,0083643696807968154
2	1	0	0	0	0	1	86209,1147	0,999955177	0,999889612	-5,168683017064823E-006	-0,00015506026875210947	1,55043153E-007	-0,008957827653012352	0,00033422859366126349	0,008957827653012352
2	1	0	0	0	0	1	98929,1329	0,999955177	0,999889612	-4,6508363239105773E-006	-0,00013952489014771178	1,39509481E-007	-0,0094818324638538432	0,00035377991768572077	0,0094818324638538432
2	1	0	0	0	0	1	111649,1511	0,999955177	0,999813199	-4,2370818832839885E-006	-0,00012711227473274843	1,27088526E-007	-0,0099502413980667328	0,00037125688480371373	0,0099502413980667328
2	1	0	0	0	0	1	124369,1693	0,999955177	0,999851406	-4,0757235398976064E-006	-0,00012227153135323794	1,22253368E-007	-0,010392930859436971	0,00038777422380974842	0,010392930859436971
1	0	0	1	0	0	1	133571,1445	-0,000500000024	1,08041286	-1,0259002341934117E-006	-0,00050230398314525069	5,42695659E-007	-0,010671060844088878	0,00039815162748685261	0,010671060844088878
2	1	0	0	0	0	1	145168,9867	0,999955177	0,999985099	-3,7631268266393619E-006	-0,00011289378713557139	1,12892103E-007	-0,011060224045710227	0,00041267182977483462	0,011060224045710227
2	1	0	0	0	0	1	157888,9887	0,999955177	1,00002325	-3,7890081910781088E-006	-0,00011367022794725019	1,13672868E-007	-0,011459372644478339	0,00042756460065587149	0,011459372644478339
2	1	0	0	0	0	1	170608,9907	0,999955177	0,999946892	-3,8610787921817171E-006	-0,00011583234564206874	1,15826197E-007	-0,011861810168815114	0,00044258008577188275	0,011861810168815114
2	1	0	1	0	0	1	178772,1314	0,999955177	0,999965966	-3,3533855995502413E-007	-0,00014986451660236685	1,49859417E-007	-0,012128691583953008	0,00045253779019655654	0,012128691583953008