Folder: thesis/Experimentelles/Rohdaten/Batterietests/AlteZelle/Batterietest Li vs LATP/ZView-Export

Note: README.md
# thesis

Zusammenfassung
---------------
Es konnten die Festkörperelektrolytkeramiken LATP, LAGP, LTO und LLTO hergestellt,
mit XRD und MAS-NMR charakterisiert und zu Elektrodensuspensionen weiterverarbeitet
werden. Aus den Daten der MAS-NMR konnten dabei gegenüber der XRD keine Mehrinfor-
mationen gewonnen werden. Die mit den Suspensionen gegossenen und gestanzten Elektro-
denproben wurden mittels REM und EDX untersucht und als Kathode in Testzellen verbaut.
Mit diesen wurden Ladekennlinien erstellt und eine zyklischer Voltametrie durchgeführt. Aus
den Ladekennlinien konnten die Kapazitäten und der Grad der Lithiuminsertation in die
Materialen bestimmt werden. Die zyklische Voltametrie lieferte nicht-reaktive Spannungsbe-
reiche der Materialien.

Für ein noch besseres Verständnis der Lithiumbewegung und -insertation wurde eine in-situ
NMR-Testzelle konzipiert, konstruiert, gebaut und getestet. Für den Test kam dabei eine
Lithium-Schwefel-Zelle zum Einsatz, für welche ein Di?usionskoe?zient sowie ein Spektrum
vor und nach einer 90 minütigen Ladezeit aufgenommen worden ist.

Abstract
--------
The all solid state electrolyte ceramics LATP, LAGP, LTO, and LLTO were successfully
synthesized and characterized by using XRD. MAS-NMR spectroscopy were not able to ge-
nerate additional information. All powders were processed to electrode slurries, casted on
aluminum foils and punched to electrode samples. Those samples were studied by SEM and
EDX and then build into battery test cells. The cells were analyzed by measuring the charge
curves as well as cyclic voltammetry. With the charge curves capacities and the amount of
lithium insertion were calculated. The cyclic voltammetry was able to detect non-reactive
voltage regions.

To be able to better understand lithium movement and insertion a novel in-situ NMR sample
cell was designed, constructed, built and tested. Therefore, a lithium-sulfur-cell was built into
the in-situ sample cell. With this setting a diffusion coeffcient as well as a NMR spectrum
before and after 90 minutes of charging were measured.

File: LATP vs Li Batterietest Probe1_02_GCPL_C01_loop9.txt
EC-Lab ASCII FILE
Nb header lines : 3
mode	ox/red	error	control changes	Ns changes	counter inc.	Ns	time/s	control/V/mA	Ewe/V	dq/mA.h	<I>/mA	P/W	(Q-Qo)/mA.h	x	Capacity/mA.h
1	1	0	1	1	0	1	30417,24	0,100000001	1,21212149	0	0	0	0	0	0
1	1	0	1	0	0	1	30473,24	0,100000001	2,12936449	5,5563253556688627E-005	0,10001385761292666	0,000212965955	0,0015543976335808003	-5,7996665618745229E-005	0,0015543976335808003
1	1	0	1	0	0	1	30529,24	0,100000001	2,51710558	5,5563185849951373E-005	0,10001373574079811	0,000251745136	0,0031101689347518176	-0,0001160445846221972	0,0031101689347518176
1	1	0	1	0	0	1	30585,24	0,100000001	2,55248857	5,5563218480183021E-005	0,10001379447521579	0,000255284074	0,0046659388672246886	-0,00017409245255768106	0,0046659388672246886
1	1	0	1	0	0	1	30641,24	0,100000001	2,57248092	5,5563206753797005E-005	0,1000137733677207	0,000257283536	0,0062217095339829094	-0,00023214034789033859	0,0062217095339829094
1	1	0	1	0	0	1	30697,24	0,100000001	2,58882618	5,5563191982193126E-005	0,10001374677883339	0,000258918211	0,0077774791027325082	-0,00029018820225481818	0,0077774791027325082
1	1	0	1	0	0	1	30753,24	0,100000001	2,60391116	5,556315586467584E-005	0,10001368176730149	0,00026042675	0,0093332467330906355	-0,00034823598429530573	0,0093332467330906355
1	1	0	1	0	0	1	30809,24	0,100000001	2,61895776	5,5563194107264282E-005	0,10001375060396154	0,000261931797	0,010889014899382269	-0,00040628378633219302	0,010889014899382269
1	1	0	1	0	0	1	30865,24	0,100000001	2,63473034	5,55631164515184E-005	0,10001361082361725	0,000263508904	0,012444781965970274	-0,00046433154733765926	0,012444781965970274
1	1	0	1	0	0	1	30921,24	0,100000001	2,65094185	5,5563108176820813E-005	0,10001359592916141	0,00026513022	0,014000546800784883	-0,00052237922507265952	0,014000546800784883
1	1	0	1	0	0	1	30977,24	0,100000001	2,66822267	5,5563092639876736E-005	0,10001356796266173	0,000266858464	0,015556312542662547	-0,00058042693665140198	0,015556312542662547
1	1	0	1	0	0	1	31033,24	0,100000001	2,6865921	5,5563162945624858E-005	0,10001369451300989	0,000268695992	0,017112078629805507	-0,0006384746611124567	0,017112078629805507
1	1	0	1	0	0	1	31089,24	0,100000001	2,70639348	5,5563014799108109E-005	0,10001342784927651	0,000270675693	0,018667844368110214	-0,00069652237255788736	0,018667844368110214
1	1	0	1	0	0	1	31145,24	0,100000001	2,72762704	5,5562981967710784E-005	0,10001336875276061	0,000272799167	0,020223608233641533	-0,00075457001412762483	0,020223608233641533
1	1	0	1	0	0	1	31201,24	0,100000001	2,75075102	5,5563037219146886E-005	0,1000134682053468	0,000275112136	0,021779374053663376	-0,00081261772862203162	0,021779374053663376
1	1	0	1	0	0	1	31257,24	0,100000001	2,77607083	5,5563035322560198E-005	0,10001346479149072	0,00027764446	0,023335139721821683	-0,0008706654374502057	0,023335139721821683
1	1	0	1	0	0	1	31313,24	0,100000001	2,80463672	5,5563031641973389E-005	0,10001345816643438	0,000280501408	0,024890905060495043	-0,0009287131339848535	0,024890905060495043
1	1	0	1	0	0	1	31369,24	0,100000001	2,83757544	5,5563108873036173E-005	0,10001359718234909	0,000283796137	0,026446670739014637	-0,00098676084319962099	0,026446670739014637
1	1	0	1	0	0	1	31425,24	0,100000001	2,87616634	5,5562895883702573E-005	0,10001321380154397	0,000287654635	0,028002435400261754	-0,0010448085144585846	0,028002435400261754
1	1	0	1	0	0	1	31481,24	0,100000001	2,92187953	5,5563043670107917E-005	0,1000134798170768	0,000292227342	0,029558196856953306	-0,001102856066151272	0,029558196856953306
1	1	0	1	0	0	1	31537,24	0,100000001	2,97696829	5,5562955092224813E-005	0,10001332037688528	0,000297736493	0,031113960203434131	-0,0011609036883545374	0,031113960203434131
1	1	0	1	0	0	1	31593,24	0,100000001	3,04553819	5,5563062115675872E-005	0,10001351301909952	0,000304594985	0,032669724952171354	-0,0012189513628778747	0,032669724952171354
1	1	0	1	0	0	1	31649,24	0,100000001	3,13335562	5,5563035065929094E-005	0,10001346432955472	0,000313377765	0,034225490584784186	-0,0012769990703797994	0,034225490584784186
1	1	0	1	0	0	1	31705,24	0,100000001	3,2493763	5,5562969548420768E-005	0,10001334639803832	0,000324980996	0,035781257873885421	-0,0013350468396875333	0,035781257873885421
1	1	0	1	0	0	1	31761,24	0,100000001	3,40612626	5,5563096013747981E-005	0,10001357403563005	0,000340658851	0,03733702456985257	-0,0013930945868646371	0,03733702456985257
1	1	0	1	0	0	1	31817,24	0,100000001	3,61685777	5,5563202685366074E-005	0,10001376604454494	0,000361735554	0,038892790918834605	-0,0014511423210952598	0,038892790918834605
1	1	0	1	0	0	1	31873,24	0,100000001	3,89575791	5,5562990058627392E-005	0,10001338331641069	0,000389627938	0,040448557104593856	-0,0015091900492358214	0,040448557104593856
1	1	0	1	0	0	1	31929,24	0,100000001	4,22462368	5,5563100289553408E-005	0,1000135817320799	0,000422519748	0,042004321679656378	-0,0015672377172791219	0,042004321679656378
1	1	0	1	0	0	1	31985,24	0,100000001	4,48229074	5,5563016691969498E-005	0,10001343125642706	0,000448289269	0,043560087702682534	-0,0016252854393478925	0,043560087702682534
1	0	0	0	0	0	2	32038,75	-0,100000001	2,96768236	-5,5544582471251488E-005	-0,099980249658732902	0,000296709622	0,042380082359054118	-0,0015812578534430582	0,0013330761545913083
1	0	0	0	0	0	2	32094,75	-0,100000001	2,47950196	-5,5544687501672237E-005	-0,099980438713492544	0,000247901684	0,040824830714776371	-0,0015232293235369802	0,0028883277988690458
1	0	0	0	0	0	2	32150,75	-0,100000001	2,42187357	-5,5544702085355917E-005	-0,099980464964123494	0,000242140042	0,039269579969850374	-0,0014652008271869254	0,0044435785437950662
1	0	0	0	0	0	2	32206,75	-0,100000001	2,40648317	-5,5544632386002278E-005	-0,099980339505285414	0,000240601003	0,037714331376478989	-0,0014071724111142659	0,0059988271371664294
1	0	0	0	0	0	2	32262,75	-0,100000001	2,39349866	-5,5544773020264173E-005	-0,099980592646959898	0,000239303408	0,036159078800240832	-0,0013491438464354918	0,0075540797134045926
1	0	0	0	0	0	2	32318,75	-0,100000001	2,37933016	-5,5544856744094029E-005	-0,09998074334985545	0,000237887201	0,034603823440142054	-0,0012911151778871355	0,0091093350735033536
1	0	0	0	0	0	2	32374,75	-0,100000001	2,36313772	-5,5544987178097171E-005	-0,099980978131063949	0,000236268825	0,033048566737942483	-0,0012330864592631939	0,010664591775702934
1	0	0	0	0	0	2	32430,75	-0,100000001	2,34455824	-5,5544917702674867E-005	-0,099980853075302285	0,000234410938	0,031493308288942707	-0,001175057675463788	0,012219850224702725
1	0	0	0	0	0	2	32486,75	-0,100000001	2,32357311	-5,5544763759606419E-005	-0,099980575977775718	0,000232312173	0,029938052824176115	-0,0011170290030101342	0,013775105689469317
1	0	0	0	0	0	2	32542,75	-0,100000001	2,30067825	-5,5544779275854426E-005	-0,09998060390702249	0,000230023201	0,028382798943130186	-0,0010590003896472285	0,015330359570515248
1	0	0	0	0	0	2	32598,75	-0,100000001	2,27596951	-5,5544693115684723E-005	-0,099980448818715136	0,000227552446	0,026827545954480032	-0,0010009718095808085	0,016885612559165398
1	0	0	0	0	0	2	32654,75	-0,100000001	2,2492938	-5,5544781806982227E-005	-0,099980608463052582	0,000224885764	0,02527229305551127	-0,00094294323286052173	0,018440865458134163
1	0	0	0	0	0	2	32710,75	-0,100000001	2,2203269	-5,5544801113092237E-005	-0,099980643214051008	0,000221989714	0,02371703967517623	-0,0008849146381798121	0,019996118838469203
1	0	0	0	0	0	2	32766,75	-0,100000001	2,18866754	-5,5544806744903328E-005	-0,099980653351311091	0,000218824411	0,022161786511680822	-0,00082688605158968064	0,021551372001964611
1	0	0	0	0	0	2	32822,75	-0,100000001	2,1534183	-5,5544625860949357E-005	-0,099980326363480973	0,000215299471	0,020606534985966656	-0,00076885752610736934	0,023106623527678778
1	0	0	0	0	0	2	32878,75	-0,100000001	2,11341453	-5,5544720291263526E-005	-0,099980496338046157	0,000211300227	0,01905128403029185	-0,00071082902189399296	0,024661874483353584
1	0	0	0	0	0	2	32934,75	-0,100000001	2,06800675	-5,5544541155298554E-005	-0,099980173893309811	0,00020675968	0,017496035079461504	-0,00065280059248405888	0,02621712343418393
1	0	0	0	0	0	2	32990,75	-0,100000001	2,01526666	-5,5544654037803411E-005	-0,099980377081818176	0,000201487113	0,015940784643532173	-0,00059477210766308506	0,027772373870113261
1	0	0	0	0	0	2	33046,75	-0,100000001	1,95353281	-5,5544645301583744E-005	-0,09998036135662281	0,000195314919	0,014385535722115878	-0,00053674367935062893	0,029327622791529555
1	0	0	0	0	0	2	33102,75	-0,100000001	1,88041842	-5,5544663766605984E-005	-0,099980394593662784	0,000188004982	0,012830285222913315	-0,0004787151921688457	0,030882873290732115
1	0	0	0	0	0	2	33158,75	-0,100000001	1,79421055	-5,5544867076393632E-005	-0,099980760551279859	0,000179386538	0,011275029611097925	-0,00042068651422860384	0,032438128902547514
1	0	0	0	0	0	2	33214,75	-0,100000001	1,69302666	-5,5544687998377619E-005	-0,099980438210851635	0,000169269551	0,0097197752630471168	-0,00036265788344111782	0,033993383250598323
1	0	0	0	0	0	2	33270,75	-0,100000001	1,57990849	-5,5544751032359066E-005	-0,099980551672018035	0,000157960123	0,0081645238753744141	-0,00030462936310931904	0,035548634638271027
1	0	0	0	0	0	2	33326,75	-0,100000001	1,45978236	-5,5544658123205107E-005	-0,09998038443554121	0,000145949598	0,0066092720004863053	-0,00024660082459885853	0,037103886513159142
1	0	0	0	0	0	2	33382,75	-0,100000001	1,34005737	-5,5544584643095731E-005	-0,099980252171344589	0,00013397928	0,0050540208679777734	-0,00018857231378757808	0,038659137645667674
1	0	0	0	0	0	2	33438,75	-0,100000001	1,2597059	-5,5544739191730816E-005	-0,099980530358887206	0,00012594607	0,003498769747342567	-0,00013054380341930742	0,040214388766302886
1	0	0	0	0	0	2	33494,75	-0,100000001	1,22525871	-5,5544683166262176E-005	-0,099980429513043853	0,000122501893	0,0019435171207587587	-7,2515236862069606E-005	0,041769641392886682
1	0	0	0	0	0	2	33550,75	-0,100000001	1,20413983	-5,5544680580082867E-005	-0,099980424857921114	0,00012039041	0,00038826622503381645	-1,4486734885503293E-005	0,043324892288611635
1	0	0	0	0	0	2	33563,47	-0,100000001	1,2000916	-1,9951640745417939E-005	-0,09998038217458953	0,00011998562	3,5046483457154829E-005	-1,3076314182846046E-006	0,043678112030188301

File: LATP vs Li Batterietest Probe1_04_OCV_C01.txt
EC-Lab ASCII FILE
Nb header lines : 47

Open Circuit Voltage

Run on channel : 1 (SN 6985)
Grouped channel(s) : 1
User :
CE vs. WE compliance from -10 V to 10 V
Electrode connection : standard
Ewe ctrl range : min = 0,00 V, max = 5,00 V
Acquisition started on : 10.28.2014 11:50:52
Saved on :
	File : LATP vs Li Batterietest Probe1_04_OCV_C01.mpr
	Directory : C:\Hupfer\Batterietest Li vs LATP\
	Host : 192.168.0.2
Device : VMP3 (SN 0324)
Address : 192.168.0.1
EC-Lab for windows v10.33 (software)
Internet server v10.33 (firmware)
Command interpretor v10.32 (firmware)
Electrode material : Lithium - LATP folie
Initial state : unbekannt
Electrolyte : LP30
Comments : Batterietest
Mass of active material : 0,001 mg
 at x = 0,000
Molecular weight of active material (at x = 0) : 0,001 g/mol
Atomic weight of intercalated ion : 0,001 g/mol
Acquisition started at : xo = 0,000
Number of e- transfered per intercalated ion : 1
for DX = 1, DQ = 26,801 mA.h
Battery capacity : 0,000 A.h
Reference electrode : Li+/Li (-3,020 V)
Electrode surface area : 0,001 cm²
Characteristic mass : 0,001 g
tR (h:m:s)          0:30:0,0000
dER/dt (mV/h)       0,0
dER (mV)            0,00
dtR (s)             10,0000
E range min (V)     0,000
E range max (V)     5,000

Number of loops : 1
Loop 0 from point number 0 to 180

mode	error	time/s	Ewe/V
3	0	36696,7914	1,212026
3	0	36706,7914	1,31788814
3	0	36716,7914	1,36102355
3	0	36726,7914	1,39298844
3	0	36736,7914	1,4202559
3	0	36746,7914	1,44496477
3	0	36756,7914	1,46791685
3	0	36766,7914	1,48962772
3	0	36776,7914	1,51053667
3	0	36786,7914	1,53066266
3	0	36796,7914	1,5503304
3	0	36806,7914	1,56942534
3	0	36816,7914	1,58831024
3	0	36826,7914	1,60688961
3	0	36836,7914	1,6251061
3	0	36846,7914	1,64316988
3	0	36856,7914	1,66067994
3	0	36866,7914	1,6783427
3	0	36876,7914	1,69569993
3	0	36886,7914	1,71290445
3	0	36896,7914	1,72986078
3	0	36906,7914	1,74664521
3	0	36916,7914	1,76321959
3	0	36926,7914	1,77950752
3	0	36936,7914	1,7953372
3	0	36946,7914	1,81116688
3	0	36956,7914	1,82653832
3	0	36966,7914	1,84177601
3	0	36976,7914	1,85630727
3	0	36986,7914	1,8710103
3	0	36996,7914	1,88514054
3	0	37006,7914	1,89902258
3	0	37016,7914	1,91254175
3	0	37026,7914	1,92565989
3	0	37036,7914	1,93852985
3	0	37046,7914	1,9510752
3	0	37056,7914	1,96339142
3	0	37066,7914	1,97540212
3	0	37076,7914	1,98701191
3	0	37086,7914	1,99823964
3	0	37096,7914	2,0092957
3	0	37106,7914	2,01993155
3	0	37116,7914	2,03039551
3	0	37126,7914	2,04053497
3	0	37136,7914	2,05038786
3	0	37146,7914	2,06008816
3	0	37156,7914	2,06940651
3	0	37166,7914	2,07845736
3	0	37176,7914	2,08731747
3	0	37186,7914	2,09583378
3	0	37196,7914	2,10415912
3	0	37206,7914	2,11219811
3	0	37216,7914	2,12023711
3	0	37226,7914	2,12776041
3	0	37236,7914	2,13537931
3	0	37246,7914	2,14263535
3	0	37256,7914	2,14966226
3	0	37266,7914	2,15646005
3	0	37276,7914	2,16310525
3	0	37286,7914	2,16969299
3	0	37296,7914	2,17578411
3	0	37306,7914	2,18197083
3	0	37316,7914	2,18777585
3	0	37326,7914	2,19337058
3	0	37336,7914	2,19894624
3	0	37346,7914	2,20438838
3	0	37356,7914	2,2095058
3	0	37366,7914	2,21441317
3	0	37376,7914	2,21920609
3	0	37386,7914	2,22378874
3	0	37396,7914	2,22829509
3	0	37406,7914	2,23264885
3	0	37416,7914	2,2368114
3	0	37426,7914	2,24072599
3	0	37436,7914	2,24444938
3	0	37446,7914	2,248173
3	0	37456,7914	2,25185823
3	0	37466,7914	2,2551043
3	0	37476,7914	2,2585032
3	0	37486,7914	2,261482
3	0	37496,7914	2,26461363
3	0	37506,7914	2,26751614
3	0	37516,7914	2,27038026
3	0	37526,7914	2,27299643
3	0	37536,7914	2,27551675
3	0	37546,7914	2,27803731
3	0	37556,7914	2,2804625
3	0	37566,7914	2,28275394
3	0	37576,7914	2,28493071
3	0	37586,7914	2,28712654
3	0	37596,7914	2,28911233
3	0	37606,7914	2,29115558
3	0	37616,7914	2,29310322
3	0	37626,7914	2,29493642
3	0	37636,7914	2,29678869
3	0	37646,7914	2,29843068
3	0	37656,7914	2,30005383
3	0	37666,7914	2,30161953
3	0	37676,7914	2,30328083
3	0	37686,7914	2,30482745
3	0	37696,7914	2,30629778
3	0	37706,7914	2,30774903
3	0	37716,7914	2,30900931
3	0	37726,7914	2,31038427
3	0	37736,7914	2,31179714
3	0	37746,7914	2,31298113
3	0	37756,7914	2,31437492
3	0	37766,7914	2,31544423
3	0	37776,7914	2,31662822
3	0	37786,7914	2,31775475
3	0	37796,7914	2,31882405
3	0	37806,7914	2,31995082
3	0	37816,7914	2,32109642
3	0	37826,7914	2,3221848
3	0	37836,7914	2,32325411
3	0	37846,7914	2,3241899
3	0	37856,7914	2,3251636
3	0	37866,7914	2,32611847
3	0	37876,7914	2,32693934
3	0	37886,7914	2,32785606
3	0	37896,7914	2,32882977
3	0	37906,7914	2,32968903
3	0	37916,7914	2,33049107
3	0	37926,7914	2,33123589
3	0	37936,7914	2,33228612
3	0	37946,7914	2,33310699
3	0	37956,7914	2,33383274
3	0	37966,7914	2,33446288
3	0	37976,7914	2,33537936
3	0	37986,7914	2,33602858
3	0	37996,7914	2,33688784
3	0	38006,7914	2,3375752
3	0	38016,7914	2,33830094
3	0	38026,7914	2,33891201
3	0	38036,7914	2,33961844
3	0	38046,7914	2,34026766
3	0	38056,7914	2,34093595
3	0	38066,7914	2,34156609
3	0	38076,7914	2,34219623
3	0	38086,7914	2,34280729
3	0	38096,7914	2,34343743
3	0	38106,7914	2,34408665
3	0	38116,7914	2,34464049
3	0	38126,7914	2,34521317
3	0	38136,7914	2,34584332
3	0	38146,7914	2,34649253
3	0	38156,7914	2,34697008
3	0	38166,7914	2,34752369
3	0	38176,7914	2,34800124
3	0	38186,7914	2,3486886
3	0	38196,7914	2,34926128
3	0	38206,7914	2,34971976
3	0	38216,7914	2,35029244
3	0	38226,7914	2,35078907
3	0	38236,7914	2,35136175
3	0	38246,7914	2,35172462
3	0	38256,7914	2,35212564
3	0	38266,7914	2,35266018
3	0	38276,7914	2,35321403
3	0	38286,7914	2,35369134
3	0	38296,7914	2,35413051
3	0	38306,7914	2,35458899
3	0	38316,7914	2,35514259
3	0	38326,7914	2,35550547
3	0	38336,7914	2,35586834
3	0	38346,7914	2,3563838
3	0	38356,7914	2,35691857
3	0	38366,7914	2,35720491
3	0	38376,7914	2,35758686
3	0	38386,7914	2,35810232
3	0	38396,7914	2,35850334
3	0	38406,7914	2,35878968
3	0	38416,7914	2,35930538
3	0	38426,7914	2,3597064
3	0	38436,7914	2,36004996
3	0	38446,7914	2,36052728
3	0	38456,7914	2,3609283
3	0	38466,7914	2,36123395
3	0	38476,7914	2,36159682
3	0	38486,7914	2,36197853
3	0	38496,7914	2,36218858