Folder: thesis/Experimentelles/Rohdaten/Batterietests/AlteZelle/150511_LLTO_LTO_Tests/LLTO_Aufladen/ZView-Export

Note: Experimentelles/Rohdaten/Batterietests/AlteZelle/150511_LLTO_LTO_Tests/LLTO_Aufladen/ZView-Export/LLTO_LP30_Li_Aufladen_02_PEIS_C02.txt
1000024,25	17,6018353	4,13594294
681286,5	15,5744905	2,11369085
464160,125	15,3766212	1,12557209
316223,094	15,303009	0,336018533
215441,859	15,3225765	-0,360949993
146777,328	15,4553003	-1,07089007
100024,406	15,6865902	-1,82285523
68127,4297	16,0412846	-2,77154231
46411,125	16,6487389	-3,88246155
31628,4121	17,6636353	-5,13867998
21545,4082	19,1759739	-6,43080282
14672,8496	21,1601334	-7,46567917
10015,2705	23,4096775	-8,1815691
6856,00244	25,6009579	-8,61938667
4642,42725	27,7186794	-9,05695629
3160,05566	29,8590965	-9,66582775
2152,93286	32,2687874	-10,5028572
1468,58972	34,9181747	-11,4050522
999,040405	38,1102791	-12,1710157
681,089661	41,6101036	-12,6136656
464,553894	45,2202835	-12,5692644
316,315765	48,7071991	-12,0346727
215,344498	51,8183937	-11,1908512
146,737289	54,4780273	-10,2063055
99,9040375	56,6767311	-9,2988615
68,1888962	58,4636002	-8,56697464
46,3802681	59,9550629	-8,20745659
31,5869217	61,1047249	-8,2810154
21,5220375	62,1076355	-9,01071739
14,6851501	62,9979858	-10,5941782
9,9904108	63,9379654	-13,455122
6,81718969	65,1880722	-17,8314152
4,63925123	66,8832397	-23,5633068
3,16039586	67,8723755	-32,5483208
2,1522038	70,6814041	-45,9465981
1,46630979	72,9951782	-62,6665039
0,998529792	77,5521927	-88,3488617

Note: README.md
# thesis

Zusammenfassung
---------------
Es konnten die Festkörperelektrolytkeramiken LATP, LAGP, LTO und LLTO hergestellt,
mit XRD und MAS-NMR charakterisiert und zu Elektrodensuspensionen weiterverarbeitet
werden. Aus den Daten der MAS-NMR konnten dabei gegenüber der XRD keine Mehrinfor-
mationen gewonnen werden. Die mit den Suspensionen gegossenen und gestanzten Elektro-
denproben wurden mittels REM und EDX untersucht und als Kathode in Testzellen verbaut.
Mit diesen wurden Ladekennlinien erstellt und eine zyklischer Voltametrie durchgeführt. Aus
den Ladekennlinien konnten die Kapazitäten und der Grad der Lithiuminsertation in die
Materialen bestimmt werden. Die zyklische Voltametrie lieferte nicht-reaktive Spannungsbe-
reiche der Materialien.

Für ein noch besseres Verständnis der Lithiumbewegung und -insertation wurde eine in-situ
NMR-Testzelle konzipiert, konstruiert, gebaut und getestet. Für den Test kam dabei eine
Lithium-Schwefel-Zelle zum Einsatz, für welche ein Di?usionskoe?zient sowie ein Spektrum
vor und nach einer 90 minütigen Ladezeit aufgenommen worden ist.

Abstract
--------
The all solid state electrolyte ceramics LATP, LAGP, LTO, and LLTO were successfully
synthesized and characterized by using XRD. MAS-NMR spectroscopy were not able to ge-
nerate additional information. All powders were processed to electrode slurries, casted on
aluminum foils and punched to electrode samples. Those samples were studied by SEM and
EDX and then build into battery test cells. The cells were analyzed by measuring the charge
curves as well as cyclic voltammetry. With the charge curves capacities and the amount of
lithium insertion were calculated. The cyclic voltammetry was able to detect non-reactive
voltage regions.

To be able to better understand lithium movement and insertion a novel in-situ NMR sample
cell was designed, constructed, built and tested. Therefore, a lithium-sulfur-cell was built into
the in-situ sample cell. With this setting a diffusion coeffcient as well as a NMR spectrum
before and after 90 minutes of charging were measured.

File: LLTO_LP30_Li_Aufladen_03_CV_C02.txt
EC-Lab ASCII FILE
Nb header lines : 64

Cyclic Voltammetry

Run on channel : 2 (SN 6986)
Grouped channel(s) : 2
User :
CE vs. WE compliance from -10 V to 10 V
Electrode connection : standard
Ewe ctrl range : min = -5,00 V, max = 5,00 V
Acquisition started on : 05.11.2015 15:06:01
Saved on :
	File : LLTO_LP30_Li_Aufladen_03_CV_C02.mpr
	Directory : C:\Hupfer\150511_LLTO_LTO_Tests\LLTO_Aufladen\
	Host : 192.168.0.2
Device : VMP3 (SN 0324)
Address : 192.168.0.1
EC-Lab for windows v10.33 (software)
Internet server v10.33 (firmware)
Command interpretor v10.32 (firmware)
Electrode material :
Initial state :
Electrolyte :
Comments :
Mass of active material : 0,001 mg
 at x = 0,000
Molecular weight of active material (at x = 0) : 0,001 g/mol
Atomic weight of intercalated ion : 0,001 g/mol
Acquisition started at : xo = 0,000
Number of e- transfered per intercalated ion : 1
for DX = 1, DQ = 26,801 mA.h
Battery capacity : 0,000 A.h
Electrode surface area : 0,001 cm²
Characteristic mass : 0,001 g
Ei (V)              0,000
vs.                 Eoc
dE/dt               20,000
dE/dt unit          mV/s
E1 (V)              4,000
vs.                 Ref
Step percent        50
N                   10
E range min (V)     -5,000
E range max (V)     5,000
I Range             Auto
Bandwidth           5
E2 (V)              1,000
vs.                 Ref
nc cycles           0
Reverse Scan        1
Ef (V)              0,000
vs.                 Eoc

Number of loops : 7
Loop 0 from point number 0 to 2998
Loop 1 from point number 2999 to 5998
Loop 2 from point number 5999 to 8998
Loop 3 from point number 8999 to 11997
Loop 4 from point number 11998 to 14997
Loop 5 from point number 14998 to 17998
Loop 6 from point number 17999 to 20998

mode	ox/red	error	control changes	counter inc.	time/s	control/V	Ewe/V	<I>/mA	cycle number	(Q-Qo)/C	P/W
2	1	0	0	0	295225,6158	2,61804438	2,61864209	0,0058576595038175578	1	0	1,53391138E-005
2	1	0	1	0	295245,6150	3,01802897	3,01877451	0,053686513436129626	1	0,000922197418	0,000162067474
2	1	0	0	0	295265,6192	3,41811419	3,41893053	0,086216689725580723	1	0,00229600561	0,000294768863
2	1	0	0	0	295285,6635	3,81900001	3,81985569	0,15050507081604003	1	0,00465397444	0,000574907637
2	0	0	1	0	295305,6881	3,78039193	3,78130984	-0,05398554502365305	1	0,00600051647	0,000204136071
2	0	0	1	0	295325,6925	3,38030672	3,38106918	-0,063293763548482931	1	0,00475494424	0,000214000596
2	0	0	0	0	295345,6967	2,98022103	2,9808557	-0,06685563255342935	1	0,00345261302	0,000199286995
2	0	0	1	0	295365,7010	2,58013368	2,58084941	-0,074110983429036659	1	0,00204365258	0,000191269282
2	0	0	1	0	295385,7453	2,17925	2,18009496	-0,13502836627541192	1	6,54826144E-005	0,000294374651
2	0	0	0	0	295405,7495	1,77916467	1,77986372	-0,26443635620590378	1	-0,00374531932	0,000470660685
2	0	0	0	0	295425,7838	1,378479	1,37892926	-1,2075116875823042	1	-0,0151096107	0,00166507321
2	1	0	0	1	295445,6586	1,01920211	1,0197767	-2,3672940281254106	1	-0,0565700047	0,00241411128
2	1	0	0	1	295465,8130	1,42228818	1,42275405	1,2192749810163547	1	-0,0590118915	0,00173472846
2	1	0	1	1	295485,8172	1,82237375	1,82303846	1,0777249092029173	1	-0,0261055436	0,00196473394
2	1	0	0	1	295505,8615	2,22326064	2,22400117	0,12612613790750293	1	-0,0191262234	0,000280504668
2	1	0	0	0	295525,8314	2,62114453	2,62184572	0,17104534735834349	2	9,56754957E-006	0,000448454521
2	1	0	1	0	295545,8356	3,02122998	3,0219214	0,11861134706824171	2	0,00257821893	0,000358434161
2	1	0	1	0	295565,8399	3,42131519	3,42213011	0,13283447752258282	2	0,00509204948	0,000454576861
2	1	0	0	0	295585,8441	3,8214004	3,8221035	0,17138742950434115	2	0,00809176546	0,000655060518
2	0	0	1	0	295605,8487	3,77839136	3,77916002	-0,045733807923239443	2	0,00971442554	0,000172835382
2	0	0	1	0	295625,8531	3,37830591	3,37891483	-0,062242981175788262	2	0,00854827091	0,000210313738
2	0	0	0	0	295645,8573	2,97822094	2,97876859	-0,067944136939734886	2	0,0072396351	0,000202389856
2	0	0	0	0	295665,8617	2,57813525	2,57874203	-0,072940729032441472	2	0,00581419561	0,00018809532
2	0	0	1	0	295685,9058	2,17724943	2,1778121	-0,10824921089051986	2	0,00407488924	0,00023574644
2	0	0	0	0	295705,9100	1,77716422	1,77782977	-0,19588772504141616	2	0,00123273593	0,000348255038
2	0	0	0	0	295725,9544	1,37627864	1,37688637	-1,1887980362882899	2	-0,00924840942	0,00163683982
2	1	0	0	1	295745,8192	1,02120268	1,02167261	-2,2585565776184371	2	-0,0498608202	0,00230750535
2	1	0	0	1	295765,9836	1,4244889	1,42509949	1,2638382962732298	2	-0,0509753004	0,00180109532
2	1	0	1	1	295785,9878	1,82457423	1,82520163	1,0768124076227466	2	-0,0176855344	0,00196539983
2	1	0	1	1	295806,0322	2,22545958	2,22596693	0,1282860751512156	2	-0,0105910003	0,000285560556
2	1	0	0	0	295825,9199	2,62194467	2,62271357	0,16028672658527965	3	8,97019981E-006	0,000420386175
2	1	0	1	0	295845,9241	3,02203012	3,02270031	0,11809512996976982	3	0,00243904022	0,000356966193
2	1	0	0	0	295865,9284	3,42211485	3,42290401	0,13022239312832262	3	0,00493347738	0,000445738755
2	1	0	0	0	295885,9327	3,82220054	3,82298899	0,16319535253569174	3	0,00780693674	0,00062389404
2	0	0	1	0	295905,8974	3,77839088	3,77918172	-0,044955075868769344	3	0,0093663726	0,000169893407
2	0	0	1	0	295925,9017	3,37830615	3,37907553	-0,061465921596177037	3	0,0082132956	0,000207697987
2	0	0	0	0	295945,9059	2,9782207	2,97884846	-0,067638465651760678	3	0,00691730343	0,000201484741
2	0	0	0	0	295965,9102	2,57813501	2,57876849	-0,071739001656640269	3	0,00550354039	0,00018499828
2	0	0	1	0	295985,9544	2,17724967	2,17802119	-0,10215665170646781	3	0,00382654672	0,000222499351
2	0	0	0	0	296005,9587	1,77716339	1,77781057	-0,18625829478996403	3	0,00113076647	0,000331131974
2	0	0	0	0	296026,0030	1,37627852	1,37678409	-1,1787079798954618	3	-0,0091462601	0,00162282644
2	1	0	0	1	296045,8678	1,02120256	1,02169037	-2,2336815123757318	3	-0,0494221933	0,002282131
2	1	0	0	1	296066,0322	1,4244889	1,42489922	1,2764353999109357	3	-0,0501640849	0,00181879185
2	1	0	1	1	296086,0363	1,82457411	1,82517934	1,0855020546803278	3	-0,0166745149	0,00198123581
2	1	0	0	1	296106,0806	2,22546101	2,22614646	0,12871795795926666	3	-0,00952446554	0,000286545022
2	1	0	0	0	296126,0125	2,62254453	2,62318563	0,15111523697635475	4	8,45355771E-006	0,000396403309
2	1	0	1	0	296146,0167	3,02263045	3,02330565	0,1184079681902528	4	0,00237477175	0,000357983488
2	1	0	0	0	296166,0210	3,42271519	3,42340207	0,12901270071125648	4	0,00486767665	0,000441662356
2	1	0	0	0	296186,0253	3,82280111	3,82351446	0,16000331884801949	4	0,00768716913	0,000611775031
2	0	0	0	0	296206,0601	3,77639079	3,77724147	-0,043549155618099578	4	0,00924398098	0,000164495679
2	0	0	1	0	296226,0642	3,37630558	3,37688565	-0,061053408085610995	4	0,00810167938	0,000206170371
2	0	0	0	0	296246,0684	2,97621989	2,9768014	-0,067526624926055987	4	0,00681237178	0,000201013347
2	0	0	0	0	296266,0728	2,57613468	2,57662344	-0,071384108849558144	4	0,00540466886	0,000183929966
2	0	0	1	0	296286,1170	2,1752491	2,17591166	-0,10001301565379706	4	0,00375077571	0,000217619483
2	0	0	1	0	296306,1214	1,77516365	1,77572036	-0,18466810157728954	4	0,00108310697	0,000327918911
2	0	0	0	0	296326,1656	1,37427819	1,37472332	-1,181341902939268	4	-0,00920053571	0,0016240183
2	1	0	0	1	296346,0304	1,02320313	1,02373326	-2,1758162776629037	4	-0,0493563302	0,00222745538
2	1	0	0	1	296366,1947	1,42648911	1,4270221	1,2974270380757459	4	-0,0495030358	0,00185145705
2	1	0	1	1	296386,1989	1,8265748	1,8270843	1,0805648577710051	4	-0,0159003623	0,00197428302
2	1	0	1	1	296406,2433	2,22746015	2,22812557	0,12856431586529848	4	-0,00881764479	0,000286457449
2	1	0	0	0	296426,2031	2,62534523	2,62606049	0,13389232399425178	5	2,23156767E-005	0,000351609342
2	1	0	1	0	296446,2073	3,02543044	3,02601123	0,11862319300847667	5	0,00235429569	0,00035895512
2	1	0	1	0	296466,2117	3,42551613	3,4261713	0,12829458354799539	5	0,00484888162	0,000439559226
2	1	0	0	0	296486,2159	3,82560158	3,82644296	0,15891068861647085	5	0,00764466915	0,000608062663
2	0	0	0	0	296506,2106	3,77439117	3,77505231	-0,042129908537458182	5	0,00919289421	0,000159042611
2	0	0	1	0	296526,2148	3,37430501	3,37500739	-0,060435617489189798	5	0,00806471985	0,00020397066
2	0	0	1	0	296546,2192	2,97421956	2,97484303	-0,067371860853637274	5	0,00678076968	0,000200420705
2	0	0	0	0	296566,2234	2,57413411	2,57467866	-0,0708086141988784	5	0,00537806144	0,000182309421
2	0	0	1	0	296586,2676	2,17324853	2,17396212	-0,099288525680695462	5	0,00373647898	0,00021584949
2	0	0	1	0	296606,2720	1,77316308	1,77393103	-0,18487726617603606	5	0,00107234181	0,000327959511
2	0	0	0	0	296626,3161	1,37227774	1,37288976	-1,1853840047562194	5	-0,00925529841	0,00162740157
2	1	0	0	1	296646,1809	1,02520347	1,02584279	-2,12241085480764	5	-0,0493335426	0,00217725988
2	1	0	0	1	296666,3453	1,42848969	1,42901611	1,3166307576552896	5	-0,0489454642	0,00188148662
2	1	0	1	1	296686,3495	1,8285749	1,82904696	1,073834625935092	5	-0,0152687281	0,00196409388
2	1	0	1	1	296706,3939	2,22946072	2,2301774	0,12860177850557797	5	-0,00825987756	0,000286804774
2	1	0	0	0	296726,2977	2,62614536	2,62671041	0,13009083095110242	6	2,16578319E-005	0,000341710955
2	1	0	1	0	296746,3019	3,02623081	3,02684379	0,1188062235230123	6	0,002334608	0,00035960789
2	1	0	1	0	296766,3062	3,42631602	3,42713308	0,12788998982351907	6	0,00482948078	0,000438296003
2	1	0	0	0	296786,3104	3,82640171	3,82727957	0,1580989845269567	6	0,0076076393	0,000605089008
2	0	0	0	0	296806,2652	3,77439094	3,7752831	-0,040027200434081203	6	0,0091694966	0,000151114014
2	0	0	1	0	296826,2694	3,37430501	3,37495399	-0,059924716104027494	6	0,00806098804	0,000202243158
2	0	0	1	0	296846,2738	2,97421956	2,97474957	-0,067263140351751347	6	0,00678229611	0,000200091003
2	0	0	0	0	296866,2780	2,57413411	2,57456303	-0,070525354412555917	6	0,00538385194	0,000181571973
2	0	0	1	0	296886,3222	2,17324853	2,17383742	-0,098450655979963827	6	0,00375262229	0,000214015716
2	0	0	1	0	296906,3265	1,77316344	1,77386868	-0,1843826655574481	6	0,00109592162	0,000327070622
2	0	0	0	0	296926,3707	1,37227774	1,37290311	-1,1810954418722837	6	-0,0091850739	0,00162152958
2	1	0	0	1	296946,1355	1,0230031	1,02350628	-2,1547949543153885	6	-0,0489067361	0,00220544613
2	1	0	0	1	296966,2999	1,42628932	1,42671049	1,3084292560816024	6	-0,0487208143	0,00186674972
2	1	0	1	1	296986,3041	1,82637465	1,82708001	1,0906896898868333	6	-0,0149338748	0,00199277722
2	1	0	0	1	297006,3384	2,22706103	2,22773457	0,12903521485296032	6	-0,00780838076	0,000287456205
2	1	0	0	0	297026,2944	2,6245451	2,62509918	0,13859751936117515	7	7,75726494E-006	0,000363832223
2	1	0	1	0	297046,2986	3,02463055	3,02533484	0,11865456028047693	7	0,00231062947	0,000358969788
2	1	0	0	0	297066,3029	3,42471552	3,4254055	0,12743546564674624	7	0,00480458234	0,000436518138
2	1	0	0	0	297086,3072	3,82480168	3,82561946	0,1568769967631865	7	0,00756546063	0,000600151718
2	0	0	0	0	297106,3420	3,77439094	3,77510953	-0,037789467127165574	7	0,00915820803	0,000142659381
2	0	0	1	0	297126,3462	3,37430501	3,37516308	-0,059380183643143565	7	0,00807273109	0,00020041781
2	0	0	1	0	297146,3506	2,97421956	2,97479415	-0,067157313503601485	7	0,00679928763	0,000199779184
2	0	0	0	0	297166,3547	2,57413411	2,57460761	-0,070280553126294106	7	0,00540416315	0,000180944844
2	0	0	1	0	297186,3789	2,1736486	2,17431855	-0,097531818772833126	7	0,00378313009	0,00021206525
2	0	0	1	0	297206,4033	1,77316332	1,77376175	-0,18356504546547914	7	0,00113545894	0,000325600646
2	0	0	0	0	297226,4475	1,37227774	1,37299216	-1,1768576787025467	7	-0,00909670163	0,00161581638
2	1	0	0	1	297246,2123	1,02300298	1,02363098	-2,1461610587106554	7	-0,0486910269	0,00219687703
2	1	0	0	1	297266,3767	1,4262892	1,42694199	1,3131966389439605	7	-0,0483627282	0,00187385548
2	1	0	1	1	297286,3809	1,82637465	1,82705748	1,0939549180092664	7	-0,0145002231	0,0019987186
2	1	0	0	1	297306,4251	2,22726154	2,22792673	0,12913242408905301	7	-0,0073700333	0,000287697592
2	1	0	0	1	297326,1736	2,62224531	2,62288785	0,11890133917331669	7	-0,00497324159	0,000311864889