Folder: thesis/Experimentelles/Ausgewaehlte_Daten/LiCoO2/PEIS

Note: README.md
# thesis

Zusammenfassung
---------------
Es konnten die Festkörperelektrolytkeramiken LATP, LAGP, LTO und LLTO hergestellt,
mit XRD und MAS-NMR charakterisiert und zu Elektrodensuspensionen weiterverarbeitet
werden. Aus den Daten der MAS-NMR konnten dabei gegenüber der XRD keine Mehrinfor-
mationen gewonnen werden. Die mit den Suspensionen gegossenen und gestanzten Elektro-
denproben wurden mittels REM und EDX untersucht und als Kathode in Testzellen verbaut.
Mit diesen wurden Ladekennlinien erstellt und eine zyklischer Voltametrie durchgeführt. Aus
den Ladekennlinien konnten die Kapazitäten und der Grad der Lithiuminsertation in die
Materialen bestimmt werden. Die zyklische Voltametrie lieferte nicht-reaktive Spannungsbe-
reiche der Materialien.

Für ein noch besseres Verständnis der Lithiumbewegung und -insertation wurde eine in-situ
NMR-Testzelle konzipiert, konstruiert, gebaut und getestet. Für den Test kam dabei eine
Lithium-Schwefel-Zelle zum Einsatz, für welche ein Di?usionskoe?zient sowie ein Spektrum
vor und nach einer 90 minütigen Ladezeit aufgenommen worden ist.

Abstract
--------
The all solid state electrolyte ceramics LATP, LAGP, LTO, and LLTO were successfully
synthesized and characterized by using XRD. MAS-NMR spectroscopy were not able to ge-
nerate additional information. All powders were processed to electrode slurries, casted on
aluminum foils and punched to electrode samples. Those samples were studied by SEM and
EDX and then build into battery test cells. The cells were analyzed by measuring the charge
curves as well as cyclic voltammetry. With the charge curves capacities and the amount of
lithium insertion were calculated. The cyclic voltammetry was able to detect non-reactive
voltage regions.

To be able to better understand lithium movement and insertion a novel in-situ NMR sample
cell was designed, constructed, built and tested. Therefore, a lithium-sulfur-cell was built into
the in-situ sample cell. With this setting a diffusion coeffcient as well as a NMR spectrum
before and after 90 minutes of charging were measured.

File: LiCoO2_Korrosion_04_PEIS_C01.mpt
EC-Lab ASCII FILE
Nb header lines : 62

Potentio Electrochemical Impedance Spectroscopy

Run on channel : 1 (SN 6985)
Grouped channel(s) : 1
User :
CE vs. WE compliance from -10 V to 10 V
Electrode connection : standard
Ewe ctrl range : min = 0,00 V, max = 5,00 V
Acquisition started on : 09.04.2015 14:23:31
Saved on :
	File : LiCoO2_Korrosion_04_PEIS_C01.mpr
	Directory : C:\Gielisch\AlteZelle\150904_LiCoO2_Korrosion\
	Host : 192.168.0.2
Device : VMP3 (SN 0324)
Address : 192.168.0.1
EC-Lab for windows v10.33 (software)
Internet server v10.33 (firmware)
Command interpretor v10.32 (firmware)
Electrode material :
Initial state :
Electrolyte :
Comments :
Electrode surface area : 0,001 cm²
Characteristic mass : 0,001 g
Equivalent Weight : 0,000 g/eq.
Density : 0,000 g/cm3
Multi Sine          0
E (V)               0,0000
vs.                 Eoc
tE (h:m:s)          0:00:0,0000
record              0
dI                  0,000
unit dI             mA
dt (s)              0,000
fi                  1,000
unit fi             MHz
ff                  1,000
unit ff             Hz
Sel Nd              1
Nd                  6
Nt                  51
Log                 1
Va (mV)             10,0
pw                  0,10
Na                  2
E range min (V)     0,000
E range max (V)     5,000
I Range             Auto
Bandwidth           5
corr                0
nc cycles           0
goto Ns'            0
nr cycles           0
inc. cycle          0

Number of loops : 1
Loop 0 from point number 0 to 36

freq/Hz	Re(Z)/Ohm	-Im(Z)/Ohm	|Z|/Ohm	Phase(Z)/deg	time/s	<Ewe>/V	<I>/mA	Cs/µF	Cp/µF	cycle number	I Range	|Ewe|/V	|I|/A	Re(Y)/Ohm-1	Im(Y)/Ohm-1	|Y|/Ohm-1	Phase(Y)/deg
1000024,25	1,04518676	-4,42203236	4,54387331	76,701683	4222,8573	3,44438624	0,164030746	-0,0359904841	-0,0340862386	1	9	0,000445617334	9,80699333E-005	0,0506222621	-0,214175344	0,220076561	-76,701683
681286,5	14,3925695	-1,34583926	14,4553566	5,3421545	4225,2413	3,44500899	0,0887321606	-0,173578992	-0,00150461681	1	10	0,00195151789	0,000135003094	0,0688780248	-0,00644073682	0,0691785067	-5,3421545
464160,125	14,5933313	-0,313043207	14,5966883	1,2288698	4226,4733	3,44520402	0,0825131163	-1,09533763	-0,00050378812	1	10	0,00634310395	0,000434557733	0,0684929341	-0,00146924972	0,0685086921	-1,2288698
316223,094	14,7993984	0,471704334	14,8069143	-1,82558239	4226,7873	3,4452498	0,082129322	1,06698108	0,00108284748	1	10	0,0104496321	0,000705726503	0,0675017387	0,00215149717	0,0675360188	1,82558239
215441,859	15,0403547	1,10188663	15,0806637	-4,19011831	4227,2033	3,44536924	0,0805661753	0,670429528	0,00357920071	1	10	0,0102051394	0,000676703581	0,066132836	0,00484502502	0,0663100779	4,19011831
146777,328	15,3600826	1,71662235	15,4557085	-6,37683868	4227,6193	3,44540811	0,078935951	0,631664395	0,00779216411	1	10	0,0101437774	0,000656312681	0,064300701	0,00718616042	0,0647010133	6,37683868
100024,406	15,7123795	2,40912247	15,895998	-8,71706867	4227,9333	3,44551325	0,0857381672	0,660473287	0,015170414	1	10	0,0108939214	0,000685324776	0,0621822439	0,00953417923	0,0629089177	8,71706867
68127,4297	16,1425934	3,23449039	16,4634514	-11,3303118	4228,2473	3,44543052	0,0767766088	0,722257853	0,0278780404	1	10	0,0106865792	0,000649109308	0,0595568232	0,0119333966	0,060740605	11,3303118
46411,125	16,7372551	4,31239223	17,2838783	-14,4481487	4228,5613	3,44543433	0,0747104213	0,795206308	0,0495032705	1	10	0,0103894686	0,000601107487	0,0560275763	0,014435634	0,057857383	14,4481487
31628,4121	17,5818367	5,64650822	18,4662952	-17,8047199	4228,8753	3,44543839	0,0734789073	0,891174555	0,0833226666	1	10	0,010203178	0,00055252976	0,0515590236	0,0165584777	0,0541527122	17,8047199
21545,4082	18,7964554	7,31228113	20,1686935	-21,2572536	4229,1893	3,44544172	0,0725864768	1,01021194	0,132789195	1	10	0,0101423794	0,000502877345	0,0462083444	0,0179761779	0,0495817922	21,2572536
14672,8496	20,66399	9,29929161	22,660038	-24,2288895	4229,4013	3,44543982	0,0719884261	1,16642225	0,196441963	1	10	0,0104472926	0,000461044809	0,0402432382	0,0181104243	0,0441305526	24,2288895
10015,2705	23,2871094	11,3381252	25,900629	-25,9607182	4229,6535	3,44547248	0,0730634332	1,40157449	0,268582731	1	10	0,0104944604	0,000405181665	0,0347132273	0,0169013217	0,0386091024	25,9607182
6856,00244	26,6907444	13,147151	29,7530403	-26,2236328	4230,0029	3,44547653	0,0704494864	1,76570237	0,344760984	1	10	0,0104540009	0,000351359078	0,0301507413	0,0148514546	0,0336100124	26,2236328
4642,42725	30,8921337	14,4408283	34,1007538	-25,0541954	4230,4541	3,44547868	0,0690633357	2,37401199	0,425734818	1	10	0,00975426845	0,000286042603	0,0265656188	0,0124183567	0,029324865	25,0541954
3160,05566	35,5560074	15,0567274	38,6126251	-22,9509602	4231,1501	3,44547462	0,0627259612	3,34499002	0,508624554	1	11	0,0104283402	0,000270075921	0,0238481313	0,0100988504	0,0258982647	22,9509602
2152,93286	40,0952148	14,8608036	42,7606087	-20,3366108	4231,6016	3,44547343	0,0614230074	4,97447586	0,600819707	1	11	0,0104284324	0,000243879418	0,0219282899	0,00812745374	0,023386009	20,3366108
1468,58972	44,3134613	13,9552097	46,4589157	-17,4802742	4232,0526	3,44547176	0,0601637624	7,7657485	0,700677037	1	11	0,0103975404	0,000223800758	0,0205304064	0,00646544248	0,0215243939	17,4802742
999,040405	47,9979439	12,6151648	49,628067	-14,7258396	4232,5036	3,44547057	0,0589761809	12,6282787	0,81597209	1	11	0,0103705246	0,000208964906	0,0194880292	0,00512198359	0,0201498885	14,7258396
681,089661	50,9963074	11,0798597	52,1860771	-12,2580214	4232,9541	3,44547176	0,05778189	21,0902424	0,950694084	1	11	0,0103526665	0,000198379857	0,0187253263	0,00406841235	0,0191621985	12,2580214
464,553894	53,394474	9,63151646	54,2562065	-10,2252913	4233,4056	3,44547296	0,0566916093	35,5704498	1,12093353	1	11	0,0103400368	0,00019057795	0,018138336	0,00327186822	0,0184310712	10,2252913
316,315765	55,3387527	8,37435341	55,9688072	-8,60521698	4233,8546	3,44547153	0,055595357	60,0825005	1,34511209	1	11	0,0103331441	0,000184623263	0,0176659618	0,00267337076	0,0178670958	8,60521698
215,344498	56,953846	7,32517529	57,4229813	-7,32891846	4234,3051	3,44547009	0,0545581952	100,894691	1,64184773	1	11	0,0103290733	0,000179876995	0,0172723569	0,00222150143	0,0174146313	7,32891846
146,737289	58,2705841	6,56559277	58,6393051	-6,42864418	4234,7521	3,44547009	0,0535441451	165,198349	2,07098007	1	11	0,0103256796	0,000176088026	0,0169461779	0,00190939743	0,0170534085	6,42864418
99,9040375	59,4086914	6,08846092	59,7198639	-5,85149145	4235,2036	3,44547105	0,052598495	261,655334	2,71961236	1	11	0,0103267571	0,000172919972	0,0166575965	0,00170714292	0,0167448465	5,85149145
68,1888962	60,3255386	5,92323828	60,6156349	-5,6077776	4235,6658	3,44546938	0,0516288988	394,046326	3,76267195	1	11	0,0103254318	0,000170342711	0,0164184403	0,00161209225	0,0164973941	5,6077776
46,3802681	61,1481667	6,1761713	61,4592819	-5,76750755	4236,1045	3,44547486	0,0507686175	555,60675	5,61088324	1	11	0,0103218267	0,000167945778	0,0161885694	0,00163510023	0,0162709355	5,76750755
31,5869217	61,95438	6,94446421	62,3423691	-6,39558601	4236,5344	3,44547129	0,0499568954	725,561279	9,00295258	1	11	0,0103272554	0,000165653881	0,0159406271	0,00178678439	0,0160404555	6,39558601
21,5220375	62,8245621	8,24199677	63,3628922	-7,47398901	4236,9563	3,44542336	0,0489062183	897,23114	15,1809597	1	11	0,0103248609	0,000162948068	0,0156480242	0,002052875	0,0157821085	7,47398901
14,6851501	63,9104576	10,493083	64,7661285	-9,32387257	4237,4167	3,44547343	0,048119843	1032,85327	27,1112156	1	11	0,0103222523	0,00015937732	0,0152361784	0,00250153895	0,0154401697	9,32387257
9,9904108	65,644783	13,5249796	67,0235977	-11,6419039	4237,8676	3,44547081	0,047373537	1177,87756	47,9642792	1	11	0,0103224525	0,000154012218	0,0146131804	0,00301079475	0,0149201183	11,6419039
6,81718969	68,053299	17,3673191	70,2344284	-14,3164043	4238,2071	3,44547391	0,0476548932	1344,25598	82,1953812	1	11	0,0103281289	0,000147052226	0,0137958694	0,00352072972	0,0142380316	14,3164043
4,63925123	70,5980988	22,2492981	74,0210953	-17,4924736	4238,6920	3,44547057	0,0466809161	1541,89893	139,308472	1	11	0,0103206225	0,000139428128	0,012884927	0,00406074105	0,0135096619	17,4924736
3,16039586	74,3823853	28,6940575	79,7250824	-21,0948257	4239,7469	3,44547868	0,0445661582	1755,03857	227,342514	1	12	0,0103250863	0,000129508626	0,0117025403	0,00451442041	0,0125431037	21,0948257
2,1522038	80,0060043	36,4634056	87,9234924	-24,501524	4240,7523	3,44547725	0,0438408181	2028,05383	348,806122	1	12	0,0103294123	0,000117481824	0,0103493417	0,00471679913	0,0113735246	24,501524
1,46630979	85,263443	47,9967346	97,8444748	-29,376152	4242,2137	3,44548512	0,0420335419	2261,42773	544,16864	1	12	0,0103235245	0,000105509527	0,00890615489	0,00501347752	0,0102203013	29,376152
0,998529792	90,914093	61,2018661	109,594894	-33,9477882	4244,3454	3,4454844	0,0393422134	2604,32056	812,162842	1	12	0,0103246821	9,42076949E-005	0,0075692106	0,00509546744	0,00912451278	33,9477882

File: LiCoO2_Korrosion_07_PEIS_C01.mpt
EC-Lab ASCII FILE
Nb header lines : 62

Potentio Electrochemical Impedance Spectroscopy

Run on channel : 1 (SN 6985)
Grouped channel(s) : 1
User :
CE vs. WE compliance from -10 V to 10 V
Electrode connection : standard
Ewe ctrl range : min = 0,00 V, max = 5,00 V
Acquisition started on : 09.04.2015 14:23:31
Saved on :
	File : LiCoO2_Korrosion_07_PEIS_C01.mpr
	Directory : C:\Gielisch\AlteZelle\150904_LiCoO2_Korrosion\
	Host : 192.168.0.2
Device : VMP3 (SN 0324)
Address : 192.168.0.1
EC-Lab for windows v10.33 (software)
Internet server v10.33 (firmware)
Command interpretor v10.32 (firmware)
Electrode material :
Initial state :
Electrolyte :
Comments :
Electrode surface area : 0,001 cm²
Characteristic mass : 0,001 g
Equivalent Weight : 0,000 g/eq.
Density : 0,000 g/cm3
Multi Sine          0
E (V)               0,0000
vs.                 Eoc
tE (h:m:s)          0:00:0,0000
record              0
dI                  0,000
unit dI             mA
dt (s)              0,000
fi                  1,000
unit fi             MHz
ff                  1,000
unit ff             Hz
Sel Nd              1
Nd                  6
Nt                  51
Log                 1
Va (mV)             10,0
pw                  0,10
Na                  2
E range min (V)     0,000
E range max (V)     5,000
I Range             Auto
Bandwidth           5
corr                0
nc cycles           0
goto Ns'            0
nr cycles           0
inc. cycle          0

Number of loops : 1
Loop 0 from point number 0 to 36

freq/Hz	Re(Z)/Ohm	-Im(Z)/Ohm	|Z|/Ohm	Phase(Z)/deg	time/s	<Ewe>/V	<I>/mA	Cs/µF	Cp/µF	cycle number	I Range	|Ewe|/V	|I|/A	Re(Y)/Ohm-1	Im(Y)/Ohm-1	|Y|/Ohm-1	Phase(Y)/deg
1000024,25	1,07370985	-4,30739498	4,43920088	76,0030594	57599,5908	1,5046097	-0,00836965255	-0,0369483382	-0,0347868204	1	9	0,000473799213	0,000106730738	0,0544850528	-0,218577325	0,225265771	-76,0030594
681286,5	14,6180992	-1,62919223	14,7086058	6,35939121	57601,9748	1,50522196	-0,0661535859	-0,143389717	-0,00175921794	1	10	0,00202150689	0,000137437019	0,0675690621	-0,00753059611	0,0679874122	-6,35939121
464160,125	14,6596193	-0,603090048	14,67202	2,35579371	57603,2068	1,50539303	-0,0647208467	-0,568551958	-0,000960626698	1	10	0,00643279916	0,000438439922	0,0680993423	-0,0028015757	0,0681569427	-2,35579371
316223,094	14,7529669	0,181369722	14,7540817	-0,70434618	57603,5208	1,50544477	-0,0636048391	2,77499223	0,000419340649	1	10	0,0104618305	0,000709080428	0,0677727386	0,000833183061	0,0677778572	0,70434618
215441,859	14,9249897	0,855215847	14,9494724	-3,27951527	57603,9368	1,50554883	-0,0619541258	0,863802254	0,0028269235	1	10	0,0101986928	0,000682210899	0,0667824447	0,00382669619	0,0668919906	3,27951527
146777,328	15,1948566	1,49485242	15,2682104	-5,61861277	57604,3538	1,50559413	-0,0628111586	0,725375473	0,00695317565	1	10	0,0101374816	0,000663960062	0,0651808977	0,00641242089	0,0654955581	5,61861277
100024,406	15,5688705	2,16753244	15,7190304	-7,92589855	57604,7698	1,50555134	-0,0637389794	0,734088719	0,0139581626	1	10	0,0101130567	0,000643363921	0,0630094334	0,00877231266	0,063617155	7,92589855
68127,4297	16,0046291	3,07567716	16,2974834	-10,8781519	57605,0838	1,50562668	-0,0618162528	0,759551823	0,0270519014	1	10	0,0105448077	0,000647020584	0,0602565892	0,0115797622	0,0613591671	10,8781519
46411,125	16,6609459	4,09259987	17,1562386	-13,8009043	57605,3978	1,50563371	-0,0620118827	0,837912679	0,0476818606	1	10	0,0104291886	0,000607894792	0,0566050969	0,0139044924	0,0582878366	13,8009043
31628,4121	17,6022148	5,29347277	18,3809357	-16,7374859	57605,7118	1,50562823	-0,0616951548	0,950609267	0,0788402855	1	10	0,0102616381	0,000558276137	0,052099321	0,0156677067	0,0544041954	16,7374859
21545,4082	19,013979	6,64302254	20,1410313	-19,2581749	57606,0258	1,50563276	-0,0614436381	1,11198688	0,120967224	1	10	0,0100834733	0,000500643335	0,0468715802	0,0163757913	0,0496498905	19,2581749
14672,8496	20,9423599	8,00239372	22,4192047	-20,9126167	57606,2378	1,50563455	-0,0617193803	1,35545695	0,172697157	1	10	0,0103914291	0,000463505683	0,0416663252	0,0159213357	0,0446046144	20,9126167
10015,2705	23,4392338	9,10149479	25,1442814	-21,2212772	57606,4900	1,50567722	-0,0595358163	1,74600196	0,228766128	1	10	0,0104579888	0,000415919174	0,0370736159	0,0143957483	0,0397704728	21,2212772
6856,00244	26,236845	9,77755737	27,9995117	-20,4386692	57606,8404	1,50567448	-0,061016988	2,37420821	0,289520025	1	10	0,0104389535	0,000372826267	0,0334665328	0,0124718091	0,0357149094	20,4386692
4642,42725	29,2771015	9,88560295	30,9010334	-18,6575871	57607,2916	1,50567675	-0,061056111	3,46794224	0,354921401	1	10	0,00977388304	0,000316296326	0,0306607001	0,0103527838	0,032361377	18,6575871
3160,05566	32,0873337	9,7408123	33,5332718	-16,886816	57607,7426	1,5056721	-0,0606713854	5,17047215	0,436283439	1	10	0,0100804577	0,000300610613	0,0285352543	0,00866250135	0,0298211277	16,886816
2152,93286	34,9485626	9,20057487	36,1393509	-14,7490597	57608,4391	1,50567663	-0,0639433116	8,03479195	0,52076751	1	11	0,0103873946	0,000287426141	0,0267589223	0,0070445668	0,0276706684	14,7490597
1468,58972	37,3827896	8,37572861	38,3096046	-12,6287308	57608,8901	1,50567067	-0,0637414455	12,9388924	0,618481815	1	11	0,0103943748	0,000271325553	0,0254716091	0,00570699153	0,0261031147	12,6287308
999,040405	39,4712143	7,38189554	40,1555634	-10,5930691	57609,3411	1,50567222	-0,063606225	21,580883	0,729312301	1	11	0,010382669	0,000258561166	0,024478741	0,00457800692	0,0249031503	10,5930691
681,089661	41,1117935	6,35738564	41,6004333	-8,79039574	57609,7916	1,50567102	-0,0634120032	36,7567635	0,858417749	1	11	0,010366614	0,000249194854	0,0237558577	0,00367352366	0,0240382105	8,79039574
464,553894	42,4344139	5,4212389	42,7793083	-7,28042507	57610,2431	1,50567079	-0,0632057637	63,1954002	1,0148809	1	11	0,0103637446	0,000242260678	0,0231873263	0,00296231359	0,0233757868	7,28042507
316,315765	43,4415207	4,65330029	43,690033	-6,11400604	57610,6921	1,50567079	-0,0629793033	108,128006	1,22657931	1	11	0,0103568789	0,00023705358	0,0227583237	0,00243779016	0,0228885151	6,11400604
215,344498	44,2668762	4,05614758	44,4523201	-5,23535872	57611,1426	1,50566971	-0,0628453791	182,210159	1,51708961	1	11	0,0103532551	0,000232906968	0,0224021655	0,00205269712	0,022496013	5,23535872
146,737289	44,9295006	3,66209173	45,0784988	-4,65973568	57611,5896	1,50567424	-0,0626519993	296,176361	1,95465434	1	11	0,0103502087	0,000229604106	0,0221102014	0,00180214748	0,0221835244	4,65973568
99,9040375	45,4603233	3,3966608	45,5870399	-4,27303123	57612,0411	1,50567305	-0,0623785704	469,013062	2,60379314	1	11	0,0103456639	0,000226943099	0,0218750834	0,00163444155	0,021936059	4,27303123
68,1888962	45,9213791	3,42542028	46,0489578	-4,26597214	57612,5032	1,50566983	-0,062208306	681,385071	3,77034163	1	11	0,010347262	0,000224701333	0,021655852	0,00161537819	0,0217160173	4,26597214
46,3802681	46,3277664	3,69970918	46,4752617	-4,56591845	57612,9420	1,50566924	-0,0620812811	927,511414	5,87774515	1	11	0,0103472834	0,00022264068	0,0214485377	0,00171286811	0,0215168241	4,56591845
31,5869217	46,7077446	4,35877657	46,9106865	-5,33141327	57613,3719	1,50566721	-0,0619570501	1155,97449	9,98007679	1	11	0,0103481058	0,000220591653	0,0212248843	0,00198071054	0,0213171039	5,33141327
21,5220375	47,0922928	5,46241093	47,4080353	-6,61638355	57613,7938	1,50566852	-0,0615279824	1353,79346	17,9728603	1	11	0,0103473403	0,00021826131	0,0209529847	0,00243041501	0,021093471	6,61638355
14,6851501	47,5686874	7,15487957	48,1037674	-8,55382538	57614,2542	1,50567067	-0,0611992814	1514,74463	33,5108871	1	11	0,0103462618	0,000215082153	0,020557154	0,00309203332	0,0207883921	8,55382538
9,9904108	48,385807	9,63694191	49,3361626	-11,2641315	57614,7051	1,50567222	-0,061142996	1653,09399	63,0732613	1	11	0,0103497673	0,000209780555	0,0198786668	0,00395920966	0,0202691071	11,2641315
6,81718969	49,5300827	12,9840965	51,2036705	-14,6893091	57615,0446	1,50566876	-0,0617150217	1798,05505	115,617691	1	11	0,0103510832	0,000202155104	0,0188915171	0,00495232968	0,0195298493	14,6893091
4,63925123	50,7817917	17,5508289	53,7291527	-19,0657978	57615,5295	1,5056721	-0,0612697415	1954,67517	208,569061	1	11	0,0103488099	0,000192610707	0,017590899	0,00607963745	0,0186118707	19,0657978
3,16039586	53,35215	24,1315479	58,5558167	-24,3375683	57616,2234	1,50568151	-0,0604704358	2086,86084	354,4245	1	11	0,0103462916	0,000176691101	0,0155600822	0,00703793252	0,0170777235	24,3375683
2,1522038	55,7472191	31,8425636	64,2004776	-29,7348156	57617,7378	1,50568104	-0,0606517233	2322,35547	571,305298	1	12	0,0103480229	0,000161182965	0,0135252932	0,00772558711	0,015576208	29,7348156
1,46630979	60,3378258	43,0383224	74,1144409	-35,499855	57619,1991	1,50567925	-0,0605542585	2521,96533	850,440796	1	12	0,0103490511	0,000139636089	0,010984594	0,00783519261	0,0134926476	35,499855
0,998529792	64,6139221	57,2348251	86,3179245	-41,5344315	57621,3310	1,50568116	-0,059642598	2784,83032	1224,38354	1	12	0,0103469882	0,000119870681	0,00867209677	0,00768171856	0,0115850791	41,5344315