Folder: thesis/Experimentelles/Rohdaten/Batterietests/AlteZelle/Studenten_Batterietests/LiCoO2_LATP_Li/PEIS_GCPL/ECLab-Export

Note: README.md
# thesis

Zusammenfassung
---------------
Es konnten die Festkörperelektrolytkeramiken LATP, LAGP, LTO und LLTO hergestellt,
mit XRD und MAS-NMR charakterisiert und zu Elektrodensuspensionen weiterverarbeitet
werden. Aus den Daten der MAS-NMR konnten dabei gegenüber der XRD keine Mehrinfor-
mationen gewonnen werden. Die mit den Suspensionen gegossenen und gestanzten Elektro-
denproben wurden mittels REM und EDX untersucht und als Kathode in Testzellen verbaut.
Mit diesen wurden Ladekennlinien erstellt und eine zyklischer Voltametrie durchgeführt. Aus
den Ladekennlinien konnten die Kapazitäten und der Grad der Lithiuminsertation in die
Materialen bestimmt werden. Die zyklische Voltametrie lieferte nicht-reaktive Spannungsbe-
reiche der Materialien.

Für ein noch besseres Verständnis der Lithiumbewegung und -insertation wurde eine in-situ
NMR-Testzelle konzipiert, konstruiert, gebaut und getestet. Für den Test kam dabei eine
Lithium-Schwefel-Zelle zum Einsatz, für welche ein Di?usionskoe?zient sowie ein Spektrum
vor und nach einer 90 minütigen Ladezeit aufgenommen worden ist.

Abstract
--------
The all solid state electrolyte ceramics LATP, LAGP, LTO, and LLTO were successfully
synthesized and characterized by using XRD. MAS-NMR spectroscopy were not able to ge-
nerate additional information. All powders were processed to electrode slurries, casted on
aluminum foils and punched to electrode samples. Those samples were studied by SEM and
EDX and then build into battery test cells. The cells were analyzed by measuring the charge
curves as well as cyclic voltammetry. With the charge curves capacities and the amount of
lithium insertion were calculated. The cyclic voltammetry was able to detect non-reactive
voltage regions.

To be able to better understand lithium movement and insertion a novel in-situ NMR sample
cell was designed, constructed, built and tested. Therefore, a lithium-sulfur-cell was built into
the in-situ sample cell. With this setting a diffusion coeffcient as well as a NMR spectrum
before and after 90 minutes of charging were measured.

File: LiCoO2_LATP_Li_01_OCV_C02.mpt
EC-Lab ASCII FILE
Nb header lines : 46

Open Circuit Voltage

Run on channel : 2 (SN 6986)
Grouped channel(s) : 2
User :
CE vs. WE compliance from -10 V to 10 V
Electrode connection : standard
Ewe ctrl range : min = -10,00 V, max = 10,00 V
Acquisition started on : 02.12.2015 14:59:29
Saved on :
	File : LiCoO2_LATP_Li_01_OCV_C02.mpr
	Directory : C:\Hupfer\Studenten Batterietests\LiCoO2_LATP_Li\PEIS_GCPL\
	Host : 192.168.0.2
Device : VMP3 (SN 0324)
Address : 192.168.0.1
EC-Lab for windows v10.33 (software)
Internet server v10.33 (firmware)
Command interpretor v10.32 (firmware)
Electrode material :
Initial state :
Electrolyte :
Comments :
Mass of active material : 0,001 mg
 at x = 0,000
Molecular weight of active material (at x = 0) : 0,001 g/mol
Atomic weight of intercalated ion : 0,001 g/mol
Acquisition started at : xo = 0,000
Number of e- transfered per intercalated ion : 1
for DX = 1, DQ = 26,801 mA.h
Battery capacity : 0,000 A.h
Electrode surface area : 0,001 cm²
Characteristic mass : 0,001 g
tR (h:m:s)          0:10:0,0000
dER/dt (mV/h)       0,0
dER (mV)            0,00
dtR (s)             5,0000
E range min (V)     -10,000
E range max (V)     10,000

Number of loops : 1
Loop 0 from point number 0 to 120

mode	error	time/s	Ewe/V
3	0	0,0000	0,969070256
3	0	5,0000	0,974658728
3	0	10,0000	0,980247259
3	0	15,0000	0,985988319
3	0	20,0000	0,991214454
3	0	25,0000	0,996688485
3	0	30,0000	1,00218165
3	0	35,0000	1,00792277
3	0	40,0000	1,01368296
3	0	45,0000	1,01919508
3	0	50,0000	1,02482176
3	0	55,0000	1,030334
3	0	60,0000	1,0359987
3	0	65,0000	1,04141557
3	0	70,0000	1,04645097
3	0	75,0000	1,05152452
3	0	80,0000	1,05631185
3	0	85,0000	1,06165242
3	0	90,0000	1,06743169
3	0	95,0000	1,07372594
3	0	100,0000	1,07961953
3	0	105,0000	1,08566582
3	0	110,0000	1,09123528
3	0	115,0000	1,09688091
3	0	120,0000	1,10229778
3	0	125,0000	1,10781002
3	0	130,0000	1,1130743
3	0	135,0000	1,11851013
3	0	140,0000	1,12369812
3	0	145,0000	1,12894332
3	0	150,0000	1,13422668
3	0	155,0000	1,1396625
3	0	160,0000	1,14485049
3	0	165,0000	1,15000033
3	0	170,0000	1,15532184
3	0	175,0000	1,16028082
3	0	180,0000	1,16573584
3	0	185,0000	1,17052329
3	0	190,0000	1,17559683
3	0	195,0000	1,18034601
3	0	200,0000	1,1849618
3	0	205,0000	1,18961573
3	0	210,0000	1,19472742
3	0	215,0000	1,19959104
3	0	220,0000	1,20455015
3	0	225,0000	1,20943296
3	0	230,0000	1,21416318
3	0	235,0000	1,21855009
3	0	240,0000	1,22331834
3	0	245,0000	1,2275908
3	0	250,0000	1,23188233
3	0	255,0000	1,23613572
3	0	260,0000	1,24063694
3	0	265,0000	1,24519551
3	0	270,0000	1,24986851
3	0	275,0000	1,2544843
3	0	280,0000	1,25883305
3	0	285,0000	1,26316261
3	0	290,0000	1,26735878
3	0	295,0000	1,27140236
3	0	300,0000	1,27519798
3	0	305,0000	1,27912712
3	0	310,0000	1,28315151
3	0	315,0000	1,28713787
3	0	320,0000	1,29102886
3	0	325,0000	1,29421413
3	0	330,0000	1,29759014
3	0	335,0000	1,30102324
3	0	340,0000	1,30460906
3	0	345,0000	1,30794692
3	0	350,0000	1,31166625
3	0	355,0000	1,31542373
3	0	360,0000	1,31944823
3	0	365,0000	1,32358706
3	0	370,0000	1,32740176
3	0	375,0000	1,33136904
3	0	380,0000	1,33480227
3	0	385,0000	1,33833086
3	0	390,0000	1,34185934
3	0	395,0000	1,34523535
3	0	400,0000	1,34887838
3	0	405,0000	1,35219717
3	0	410,0000	1,35530615
3	0	415,0000	1,35852957
3	0	420,0000	1,36194372
3	0	425,0000	1,36509073
3	0	430,0000	1,36829507
3	0	435,0000	1,37148035
3	0	440,0000	1,37470376
3	0	445,0000	1,37790811
3	0	450,0000	1,38084543
3	0	455,0000	1,38391614
3	0	460,0000	1,38610959
3	0	465,0000	1,38843656
3	0	470,0000	1,39101148
3	0	475,0000	1,39375806
3	0	480,0000	1,39635205
3	0	485,0000	1,39923215
3	0	490,0000	1,40215039
3	0	495,0000	1,40499222
3	0	500,0000	1,4078151
3	0	505,0000	1,41073334
3	0	510,0000	1,41384232
3	0	515,0000	1,4175235
3	0	520,0000	1,42091858
3	0	525,0000	1,42406559
3	0	530,0000	1,42696476
3	0	535,0000	1,42990208
3	0	540,0000	1,43301105
3	0	545,0000	1,43570042
3	0	550,0000	1,43838978
3	0	555,0000	1,44069767
3	0	560,0000	1,4424715
3	0	565,0000	1,44399738
3	0	570,0000	1,4457711
3	0	575,0000	1,44834602
3	0	580,0000	1,4517411
3	0	585,0000	1,45542228
3	0	590,0000	1,45841682
3	0	595,0000	1,4614495
3	0	600,0000	1,46379554

File: LiCoO2_LATP_Li_09_PEIS_C02.mpt
EC-Lab ASCII FILE
Nb header lines : 68

Potentio Electrochemical Impedance Spectroscopy

Run on channel : 2 (SN 6986)
Grouped channel(s) : 2
User :
CE vs. WE compliance from -10 V to 10 V
Electrode connection : standard
Ewe ctrl range : min = -10,00 V, max = 10,00 V
Acquisition started on : 02.12.2015 14:59:29
Saved on :
	File : LiCoO2_LATP_Li_09_PEIS_C02.mpr
	Directory : C:\Hupfer\Studenten Batterietests\LiCoO2_LATP_Li\PEIS_GCPL\
	Host : 192.168.0.2
Device : VMP3 (SN 0324)
Address : 192.168.0.1
EC-Lab for windows v10.33 (software)
Internet server v10.33 (firmware)
Command interpretor v10.32 (firmware)
Electrode material :
Initial state :
Electrolyte :
Comments :
Mass of active material : 0,001 mg
 at x = 0,000
Molecular weight of active material (at x = 0) : 0,001 g/mol
Atomic weight of intercalated ion : 0,001 g/mol
Acquisition started at : xo = 0,000
Number of e- transfered per intercalated ion : 1
for DX = 1, DQ = 26,801 mA.h
Battery capacity : 0,000 A.h
Electrode surface area : 0,001 cm²
Characteristic mass : 0,001 g
Multi Sine          0
E (V)               0,0000
vs.                 Eoc
tE (h:m:s)          0:00:0,0000
record              0
dI                  0,000
unit dI             mA
dt (s)              0,000
fi                  1,000
unit fi             MHz
ff                  1,000
unit ff             Hz
Sel Nd              1
Nd                  6
Nt                  51
Log                 1
Va (mV)             10,0
pw                  0,10
Na                  2
E range min (V)     -10,000
E range max (V)     10,000
I Range             Auto
Bandwidth           5
corr                0
nc cycles           0
goto Ns'            0
nr cycles           0
inc. cycle          0

Number of loops : 1
Loop 0 from point number 0 to 36

freq/Hz	Re(Z)/Ohm	-Im(Z)/Ohm	|Z|/Ohm	Phase(Z)/deg	time/s	<Ewe>/V	<I>/mA	Cs/µF	Cp/µF	cycle number	I Range	|Ewe|/V	|I|/A	Re(Y)/Ohm-1	Im(Y)/Ohm-1	|Y|/Ohm-1	Phase(Y)/deg
1000024,25	190,501907	646,661133	674,137695	-73,5853882	246646,3604	4,41460562	-0,000583677611	0,000246112031	0,000226458767	1	12	0,00490055187	7,26936332E-006	0,000419181568	0,00142291689	0,00148337649	73,5853882
681286,5	292,015656	844,530212	893,590759	-70,9260025	246646,6744	4,41454601	9,36464348E-005	0,000276614621	0,00024707464	1	12	0,0102553265	1,14765362E-005	0,000365703221	0,00105763995	0,00111908047	70,9260025
464160,125	409,509857	1151,84167	1222,47192	-70,4283676	246647,0904	4,414536	0,000106504456	0,000297686784	0,000264281844	1	12	0,0100629814	8,23166647E-006	0,000274022721	0,000770752609	0,000818014669	70,4283676
316223,094	608,756531	1578,58447	1691,89636	-68,911644	246647,5064	4,41451979	0,000102609702	0,000318829669	0,000277553598	1	12	0,0100778295	5,95652864E-006	0,000212665036	0,000551467994	0,000591052754	68,911644
215441,859	916,385925	2114,61792	2304,64136	-66,5701294	246647,8204	4,41450834	0,000109336848	0,000349347887	0,000294113706	1	12	0,0108219022	4,69569886E-006	0,000172532833	0,000398130273	0,000433907	66,5701294
146777,328	1373,47961	2745,26245	3069,67627	-63,420784	246648,1344	4,41451883	8,68444477E-005	0,000394981995	0,000315907469	1	12	0,0108109759	3,52186203E-006	0,000145759579	0,000291339064	0,000325767265	63,420784
100024,406	2044,03796	3460,0105	4018,677	-59,4270782	246648,4484	4,41448641	0,000134661663	0,00045987175	0,000340898725	1	12	0,010593934	2,63617449E-006	0,000126567655	0,000214245258	0,0002488381	59,4270782
68127,4297	2754,71924	4223,55615	5042,50977	-56,8865089	246648,7624	4,41451025	0,000103205894	0,000553120626	0,000388045737	1	12	0,0104729254	2,0769271E-006	0,000108338747	0,00016610579	0,000198313937	56,8865089
46411,125	3595,10522	5013,76074	6169,48779	-54,3576736	246649,3104	4,41448641	6,34987591E-005	0,000683965918	0,000451713888	1	13	0,00961341709	1,55821965E-006	9,44524872E-005	0,00013172414	0,000162088007	54,3576736
31628,4121	4535,82813	6044,79053	7557,32959	-53,1165428	246649,6244	4,41447592	6,0990209E-005	0,000832456397	0,000532582984	1	13	0,0104200123	1,37879556E-006	7,9418176E-005	0,000105838706	0,000132321875	53,1165428
21545,4082	5500,41504	7364,59619	9191,94434	-53,2449532	246649,9384	4,41448259	6,29564165E-005	0,00100303581	0,000643872016	1	13	0,0103682419	1,12797045E-006	6,50999573E-005	8,71633965E-005	0,000108790911	53,2449532
14672,8496	6439,83105	9197,96875	11228,2705	-55,0027428	246650,2524	4,41448259	6,19015482E-005	0,00117927138	0,000791355909	1	13	0,0100977821	8,99317683E-007	5,10797472E-005	7,2956871E-005	8,90609081E-005	55,0027428
10015,2705	7361,35742	11814,7393	13920,4043	-58,0743866	246650,5046	4,41451502	6,60762453E-005	0,00134503411	0,000968897599	1	13	0,01002998	7,20523587E-007	3,79886806E-005	6,09705967E-005	7,1836992E-005	58,0743866
6856,00244	8387,84863	15705,6719	17805,1719	-61,894886	246650,8550	4,41454649	6,1461702E-005	0,00147806189	0,001150041	1	13	0,00977791753	5,49161655E-007	2,64580758E-005	4,95409331E-005	5,61634552E-005	61,894886
4642,42725	9693,33203	21559,1758	23638,0781	-65,790596	246651,5212	4,41452742	6,33160817E-005	0,00159016752	0,00132276549	1	13	0,00991594791	4,19490448E-007	1,7347973E-005	3,85840503E-005	4,23046222E-005	65,790596
3160,05566	11240,7109	29769,2715	31820,7969	-69,3137436	246651,9722	4,41452885	6,20571518E-005	0,00169183197	0,00148071512	1	13	0,0101347752	3,18495324E-007	1,1101245E-005	2,93999165E-005	3,14259887E-005	69,3137436
2152,93286	13851,8203	41458,9102	43711,7148	-71,525032	246652,6697	4,4145174	6,24911772E-005	0,00178308389	0,00160402758	1	14	0,0109073194	2,49528512E-007	7,24955089E-006	2,16981243E-005	2,28771623E-005	71,525032
1468,58972	17088,1191	57984,3906	60449,9258	-73,5796509	246653,1208	4,41451693	6,24284585E-005	0,00186899689	0,00171964662	1	14	0,0106191328	1,75668248E-007	4,67630252E-006	1,58679049E-005	1,65426172E-005	73,5796509
999,040405	21952,5137	81891,1016	84782,4609	-74,9935684	246653,5717	4,41452265	6,26479086E-005	0,00194536173	0,00181493792	1	14	0,0104589593	1,23362298E-007	3,05402159E-006	1,1392648E-005	1,17948921E-005	74,9935684
681,089661	30103,7324	114161,414	118063,813	-75,2276917	246654,0222	4,41452312	6,26911497E-005	0,0020468994	0,00191382214	1	14	0,0103679132	8,78161828E-008	2,15966634E-006	8,19003526E-006	8,46999592E-006	75,2276917
464,553894	41543,2617	159606,094	164924,063	-75,4104233	246654,4738	4,41452122	6,26686888E-005	0,00214651809	0,00201032124	1	14	0,0103272116	6,26179784E-008	1,527329E-006	5,86788246E-006	6,06339654E-006	75,4104233
316,315765	58460,832	220175,063	227804,141	-75,1299515	246654,9227	4,41452265	6,26621622E-005	0,00228523649	0,00213473616	1	14	0,0103050023	4,52362379E-008	1,12652731E-006	4,24272503E-006	4,38973575E-006	75,1299515
215,344498	88967,6797	307632,594	320239,063	-73,8700714	246655,3732	4,41452789	6,303798E-005	0,0024024481	0,00221702224	1	14	0,01029188	3,21381144E-008	8,67528399E-007	2,99974067E-006	3,12266707E-006	73,8700714
146,737289	125748,563	420217,156	438628,719	-73,3403625	246655,8202	4,41451788	6,28059497E-005	0,00258110603	0,00236896845	1	14	0,0102909878	2,34617286E-008	6,5359535E-007	2,18413584E-006	2,27983242E-006	73,3403625
99,9040375	195763,453	581508,688	613576,125	-71,3943176	246656,2717	4,41452217	6,31456933E-005	0,00273956032	0,00246068719	1	14	0,0102863992	1,67646661E-008	5,19989783E-007	1,54461156E-006	1,62978961E-006	71,3943176
68,1888962	307524,781	729892,25	792031,688	-67,1528931	246656,7338	4,41452551	6,28777925E-005	0,00319777336	0,00271568936	1	14	0,0102810049	1,29805473E-008	4,90224579E-007	1,16351941E-006	1,26257578E-006	67,1528931
46,3802681	526754,938	1047124,44	1172152	-63,2953644	246657,1726	4,41452026	6,23934247E-005	0,00327709131	0,00261527463	1	14	0,0102835055	8,77318396E-009	3,83389931E-007	7,62132402E-007	8,53131667E-007	63,2953644
31,5869217	668338,813	1362847,88	1517903,5	-63,8767281	246657,6025	4,4145236	6,26277833E-005	0,00369713618	0,00298038172	1	14	0,0102802981	6,77269529E-009	2,900737E-007	5,91505852E-007	6,58803401E-007	63,8767281
21,5220375	924864,063	1740442	1970916,5	-62,0139999	246658,0244	4,41452456	6,28013804E-005	0,00424890686	0,00331329321	1	14	0,0102822194	5,21697352E-009	2,38090152E-007	4,48046507E-007	5,07378161E-007	62,0139999
14,6851501	1536227,5	1904002,88	2446471,25	-51,1019897	246658,4848	4,41453743	6,28236521E-005	0,00569212157	0,00344769727	1	14	0,0102821635	4,20285495E-009	2,56670091E-007	3,18117344E-007	4,08751987E-007	51,1019897
9,9904108	1836989,25	2337607,5	2973035,25	-51,8382645	246658,9357	4,4145236	6,26401743E-005	0,00681498973	0,00421316316	1	14	0,0102805272	3,45792306E-009	2,0782916E-007	2,64466991E-007	3,36356578E-007	51,8382645
6,81718969	2637542,5	3259227,5	4192755	-51,0183525	246659,2752	4,41452599	6,26727851E-005	0,00716308411	0,00432843063	1	14	0,0102858348	2,45324006E-009	1,50037721E-007	1,85402556E-007	2,38506658E-007	51,0183525
4,63925123	3316750,5	3349319,5	4713679,5	-45,2799339	246659,7601	4,41452456	6,23144006E-005	0,0102427285	0,00517140701	1	14	0,0102913361	2,18329155E-009	1,49276929E-007	1,50742764E-007	2,12148493E-007	45,2799339
3,16039586	3734810,25	4084230,75	5534415	-47,558754	246660,4540	4,41453743	6,2668696E-005	0,0123301502	0,00671499129	1	14	0,0102793071	1,85734306E-009	1,21934079E-007	1,33341956E-007	1,80687564E-007	47,558754
2,1522038	4388798,5	3778843	5791477	-40,7291069	246661,4593	4,41454363	6,23533924E-005	0,0195694175	0,00833137892	1	14	0,0102803363	1,77508019E-009	1,30847965E-007	1,12662704E-007	1,72667526E-007	40,7291069
1,46630979	5663832,5	3995840	6931503	-35,2030106	246662,9207	4,41453981	6,21328581E-005	0,0271635372	0,00902708806	1	14	0,010280692	1,48318369E-009	1,17884184E-007	8,31674214E-008	1,44268853E-007	35,2030106
0,998529792	8185244	4021688,5	9119879	-26,1664543	246665,0526	4,41454124	6,21774234E-005	0,0396324284	0,00770707149	1	14	0,0102819493	1,12742171E-009	9,84132242E-008	4,83537619E-008	1,09650578E-007	26,1664543

File: LiCoO2_LATP_Li_10_OCV_C02.mpt
EC-Lab ASCII FILE
Nb header lines : 46

Open Circuit Voltage

Run on channel : 2 (SN 6986)
Grouped channel(s) : 2
User :
CE vs. WE compliance from -10 V to 10 V
Electrode connection : standard
Ewe ctrl range : min = -10,00 V, max = 10,00 V
Acquisition started on : 02.12.2015 14:59:29
Saved on :
	File : LiCoO2_LATP_Li_10_OCV_C02.mpr
	Directory : C:\Hupfer\Studenten Batterietests\LiCoO2_LATP_Li\PEIS_GCPL\
	Host : 192.168.0.2
Device : VMP3 (SN 0324)
Address : 192.168.0.1
EC-Lab for windows v10.33 (software)
Internet server v10.33 (firmware)
Command interpretor v10.32 (firmware)
Electrode material :
Initial state :
Electrolyte :
Comments :
Mass of active material : 0,001 mg
 at x = 0,000
Molecular weight of active material (at x = 0) : 0,001 g/mol
Atomic weight of intercalated ion : 0,001 g/mol
Acquisition started at : xo = 0,000
Number of e- transfered per intercalated ion : 1
for DX = 1, DQ = 26,801 mA.h
Battery capacity : 0,000 A.h
Electrode surface area : 0,001 cm²
Characteristic mass : 0,001 g
tR (h:m:s)          0:10:0,0000
dER/dt (mV/h)       0,0
dER (mV)            0,00
dtR (s)             5,0000
E range min (V)     -10,000
E range max (V)     10,000

Number of loops : 1
Loop 0 from point number 0 to 120

mode	error	time/s	Ewe/V
3	0	246665,1152	4,05069685
3	0	246670,1152	3,12770748
3	0	246675,1152	2,98112845
3	0	246680,1152	2,89382958
3	0	246685,1152	2,83126903
3	0	246690,1152	2,7826128
3	0	246695,1152	2,74232984
3	0	246700,1152	2,70786428
3	0	246705,1152	2,67784286
3	0	246710,1152	2,65104461
3	0	246715,1152	2,62685966
3	0	246720,1152	2,60475349
3	0	246725,1152	2,58440232
3	0	246730,1152	2,56551957
3	0	246735,1152	2,54760981
3	0	246740,1152	2,53057718
3	0	246745,1152	2,5144794
3	0	246750,1152	2,49952579
3	0	246755,1152	2,48554492
3	0	246760,1152	2,4727087
3	0	246765,1152	2,46053982
3	0	246770,1152	2,44884777
3	0	246775,1152	2,43789983
3	0	246780,1152	2,42782903
3	0	246785,1152	2,41833043
3	0	246790,1152	2,40944219
3	0	246795,1152	2,40059209
3	0	246800,1152	2,39227629
3	0	246805,1152	2,38426542
3	0	246810,1152	2,37675047
3	0	246815,1152	2,36954069
3	0	246820,1152	2,36244535
3	0	246825,1152	2,35544562
3	0	246830,1152	2,34878898
3	0	246835,1152	2,3422277
3	0	246840,1152	2,33595252
3	0	246845,1152	2,32977271
3	0	246850,1152	2,32385993
3	0	246855,1152	2,31825233
3	0	246860,1152	2,3127594
3	0	246865,1152	2,3073616
3	0	246870,1152	2,30226898
3	0	246875,1152	2,29761505
3	0	246880,1152	2,29299927
3	0	246885,1152	2,28796387
3	0	246890,1152	2,28330994
3	0	246895,1152	2,27875137
3	0	246900,1153	2,2741549
3	0	246905,1153	2,26971078
3	0	246910,1153	2,26564813
3	0	246915,1153	2,26162362
3	0	246920,1153	2,25780892
3	0	246925,1153	2,25414681
3	0	246930,1153	2,25080895
3	0	246935,1153	2,24728036
3	0	246940,1153	2,24375176
3	0	246945,1153	2,24016595
3	0	246950,1153	2,23678994
3	0	246955,1153	2,23347139
3	0	246960,1153	2,23009539
3	0	246965,1153	2,22681475
3	0	246970,1153	2,2238965
3	0	246975,1153	2,22126436
3	0	246980,1153	2,21809816
3	0	246985,1153	2,21514177
3	0	246990,1153	2,21205187
3	0	246995,1153	2,20903826
3	0	247000,1153	2,20667315
3	0	247005,1153	2,20423174
3	0	247010,1153	2,20165682
3	0	247015,1153	2,19919634
3	0	247020,1153	2,19669771
3	0	247025,1153	2,19465685
3	0	247030,1153	2,19210124
3	0	247035,1153	2,18954539
3	0	247040,1153	2,18697047
3	0	247045,1153	2,18412852
3	0	247050,1153	2,18119121
3	0	247055,1153	2,17869258
3	0	247060,1153	2,17649913
3	0	247065,1153	2,17442012
3	0	247070,1153	2,17266536
3	0	247075,1153	2,17079616
3	0	247080,1153	2,16919398
3	0	247085,1153	2,16719127
3	0	247090,1153	2,16536021
3	0	247095,1153	2,1633575
3	0	247100,1153	2,16125941
3	0	247105,1153	2,15927577
3	0	247110,1153	2,15744472
3	0	247115,1153	2,15643382
3	0	247120,1153	2,15563273
3	0	247125,1153	2,15498424
3	0	247130,1153	2,15366817
3	0	247135,1153	2,15216136
3	0	247140,1153	2,15044498
3	0	247145,1153	2,14846134
3	0	247150,1153	2,14649677
3	0	247155,1153	2,14497089
3	0	247160,1153	2,14376926
3	0	247165,1153	2,14268208
3	0	247170,1153	2,14186192
3	0	247175,1153	2,14134693
3	0	247180,1153	2,14075565
3	0	247185,1153	2,13911533
3	0	247190,1153	2,13722706
3	0	247195,1153	2,13577747
3	0	247200,1153	2,13442326
3	0	247205,1153	2,13268757
3	0	247210,1153	2,13131428
3	0	247215,1153	2,13013172
3	0	247220,1153	2,12862492
3	0	247225,1153	2,12713718
3	0	247230,1153	2,12641239
3	0	247235,1153	2,12620258
3	0	247240,1153	2,12629795
3	0	247245,1153	2,12605
3	0	247250,1153	2,1254015
3	0	247255,1153	2,12442875
3	0	247260,1153	2,12337971
3	0	247265,1153	2,12212086