Folder: thesis/Experimentelles/Rohdaten/Batteriemessungen/AlteZelle/Studenten_Batterietests/S vs Li GCPL 300µm/ECLab-Export (part 2)

File: S vs Li GCPL 300µm_02_GCPL_C06_loop2.mpt
EC-Lab ASCII FILE
Nb header lines : 3
mode	ox/red	error	control changes	Ns changes	counter inc.	Ns	time/s	control/V/mA	Ewe/V	dq/mA.h	<I>/mA	P/W	(Q-Qo)/mA.h	x	Capacity/mA.h
1	0	0	1	1	0	1	147600,09	-0,200000003	2,32591772	0	0	0	0	0	0
1	0	0	1	0	0	1	148810,09	-0,200000003	2,26883006	-0,00055586390905165011	-0,200110975948792	0,000454017805	-0,06725625188353696	0,0025094211847671571	0,06725625188353696
1	0	0	1	0	0	1	150020,09	-0,200000003	2,24842954	-0,00055586434489405805	-0,20011113285203434	0,000449935789	-0,13451510328206531	0,0050189393609337293	0,13451510328206531
1	0	0	1	0	0	1	151230,09	-0,200000003	2,21999049	-0,0005558524956463111	-0,20010686712351286	0,000444235338	-0,20177432695299242	0,007528471427084023	0,20177432695299242
1	0	0	1	0	0	1	152440,09	-0,200000003	2,173208	-0,00055585539553397229	-0,20010791108290752	0,000434876099	-0,2690328774709057	0,010037978376990307	0,2690328774709057
1	0	0	1	0	0	1	153650,09	-0,200000003	2,11187267	-0,00055584548956569702	-0,20010434493488637	0,000422594894	-0,33629087117452282	0,012547464551406558	0,33629087117452282
1	0	0	1	0	0	1	154860,09	-0,200000003	2,05449939	-0,00055584853977710003	-0,20010544301081968	0,000411116518	-0,4035481194276761	0,015056922912063734	0,4035481194276761
1	0	0	1	0	0	1	156070,09	-0,200000003	2,04331803	-0,00055584096900208128	-0,20010271753223936	0,000408873486	-0,47080546424884019	0,017566384875803229	0,47080546424884019
1	0	0	1	0	0	1	157280,09	-0,200000003	2,05406141	-0,0005558584194456537	-0,2001089996909425	0,000411036162	-0,53806399615381837	0,020075891131235882	0,53806399615381837
1	0	0	1	0	0	1	158490,09	-0,200000003	2,06354737	-0,00055586330964747398	-0,20011076016099274	0,00041293804	-0,60532283499128704	0,022585408838732426	0,60532283499128704
1	0	0	1	0	0	1	159700,09	-0,200000003	2,07013798	-0,0005558652701104681	-0,20011146592988976	0,000414258335	-0,67258192803818867	0,025094936031124701	0,67258192803818867
1	0	0	1	0	0	1	160910,09	-0,200000003	2,07488108	-0,00055585142614609658	-0,20010648210349584	0,000415197166	-0,73984121443037299	0,027604470437489437	0,73984121443037299
1	0	0	1	0	0	1	162120,09	-0,200000003	2,07853818	-0,00055585630096164013	-0,20010823703681696	0,00041593262	-0,80710034463756979	0,030113999016382291	0,80710034463756979
1	0	0	1	0	0	1	163330,09	-0,200000003	2,08118606	-0,00055586088317549894	-0,200109886633548	0,000416465919	-0,87435933729185434	0,032623522462991046	0,87435933729185434
1	0	0	1	0	0	1	164540,09	-0,200000003	2,0835669	-0,0005558675730907255	-0,20011229500265277	0,000416947354	-0,94161885963661645	0,035133065673063693	0,94161885963661645
1	0	0	1	0	0	1	165750,09	-0,200000003	2,08547187	-0,00055586506677998432	-0,2001113927309271	0,000417326693	-1,0088785481821973	0,037642615084312352	1,0088785481821973
1	0	0	1	0	0	1	166960,09	-0,200000003	2,08655763	-0,00055586021495196544	-0,2001096460731136	0,000417540316	-1,0761380724983766	0,040152158367941229	1,0761380724983766
1	0	0	1	0	0	1	168170,09	-0,200000003	2,08705282	-0,00055585581896371309	-0,20010806351759034	0,000417636096	-1,1433972150117744	0,042661687405994982	1,1433972150117744
1	0	0	1	0	0	1	169380,09	-0,200000003	2,08655763	-0,00055586879254215296	-0,20011273400509795	0,000417546747	-1,210656613054773	0,045171225978201709	1,210656613054773
1	0	0	1	0	0	1	170590,09	-0,200000003	2,08455753	-0,00055587058789365824	-0,20011338033153872	0,00041714785	-1,2779161367836254	0,047680769239916634	1,2779161367836254
1	0	0	1	0	0	1	171800,09	-0,200000003	2,08101463	-0,00055585627345658003	-0,20010822713499686	0,000416428142	-1,3451756373028858	0,05019031163565047	1,3451756373028858
1	0	0	1	0	0	1	173010,09	-0,200000003	2,07440472	-0,00055585495883226387	-0,20010775387031709	0,00041510447	-1,4124344265196986	0,052699827491733632	1,4124344265196986
1	0	0	1	0	0	1	174220,09	-0,200000003	2,06396627	-0,00055585222620599808	-0,2001067701250153	0,000413013622	-1,4796928925635427	0,05520933128979881	1,4796928925635427
1	0	0	1	0	0	1	175430,09	-0,200000003	2,04840398	-0,0005558745594579312	-0,20011481009445331	0,000409915985	-1,546952054278081	0,057718861044272934	1,546952054278081
1	0	0	1	0	0	1	176640,09	-0,200000003	2,02657461	-0,00055585824722879462	-0,20010893769288294	0,000405535684	-1,6142116081872016	0,060228405432054246	1,6142116081872016
1	0	0	1	0	0	1	177850,09	-0,200000003	1,99640226	-0,00055585038798716333	-0,20010610836633837	0,000399492274	-1,6814708070559968	0,062737936572803661	1,6814708070559968
1	0	0	1	0	0	1	179060,10	-0,200000003	1,95489609	-0,00055586139175958099	-0,20011006972378893	0,000391194393	-1,7487297315587872	0,065247457476588531	1,7487297315587872
1	0	0	1	0	0	1	180270,10	-0,200000003	1,90820897	-0,00055585778457091917	-0,20010877113607382	0,000381849357	-1,8159881184299936	0,067756958320616166	1,8159881184299936
1	0	0	1	0	0	1	181480,10	-0,200000003	1,8595407	-0,00055586115190469555	-0,20010998337604365	0,00037211267	-1,883247152811095	0,070266483324108544	1,883247152811095
1	0	0	1	0	0	1	182690,10	-0,200000003	1,77513802	-0,000555857289681832	-0,20010859297603027	0,000355220371	-1,9505068934825597	0,072776034680244019	1,9505068934825597
1	1	0	0	0	0	2	183890,10	0,200000003	2,29873586	0,00055533689184983565	0,19992124978582378	0,000459566159	-1,98498562866612	0,074062482647095142	0,016104899360618659
1	1	0	0	0	0	2	185100,10	0,200000003	2,25361061	0,00055534289448708294	0,19992341073489466	0,000450549531	-1,917788788087592	0,07155527817799721	0,083301739939147456
1	1	0	0	0	0	2	186310,10	0,200000003	2,24642944	0,000555338150266144	0,19992170281562387	0,000449109997	-1,8505923827735626	0,069048089949202944	0,15049814525317494
1	1	0	0	0	0	2	187520,10	0,200000003	2,24783897	0,00055534181198229389	0,19992302103323158	0,000449394749	-1,783396057635808	0,066540904711893286	0,21769447039092835
1	1	0	0	0	0	2	188730,10	0,200000003	2,25069618	0,0005553581644487049	0,19992890792021846	0,000449979241	-1,716198881613528	0,064033687726937984	0,28489164641320848
1	1	0	0	0	0	2	189940,10	0,200000003	2,25370574	0,00055535704610165626	0,19992850531534397	0,000450580032	-1,6490011930679155	0,061526451619048026	0,35208933495882118
1	1	0	0	0	0	2	191150,10	0,200000003	2,2572298	0,0005553522156468697	0,1999267663518929	0,000451280648	-1,5818037737155869	0,059019225555121434	0,41928675431114995
1	1	0	0	0	0	2	192360,10	0,200000003	2,26067758	0,0005553551545722617	0,19992782436486845	0,000451972359	-1,5146060183916672	0,056511986955643059	0,48648450963507078
1	1	0	0	0	0	2	193570,10	0,200000003	2,26446795	0,0005553496258945929	0,19992583404121907	0,000452725653	-1,447407757473321	0,054004729491756845	0,55368277055341574
1	1	0	0	0	0	2	194780,10	0,200000003	2,2682395	0,00055536055723163821	0,19992976932193968	0,00045348861	-1,3802098093686552	0,051497483699369645	0,62088071865808128
1	1	0	0	0	0	2	195990,10	0,200000003	2,27189684	0,00055535968101686906	0,19992945388467216	0,000454219087	-1,3130117294337018	0,048990232988217158	0,68807879859303629
1	1	0	0	0	0	2	197200,10	0,200000003	2,27585888	0,00055534954998890554	0,19992580671517594	0,000455002912	-1,2458136388190912	0,046482981878592294	0,75527688920764685
1	1	0	0	0	0	2	198410,10	0,200000003	2,27983999	0,00055536226538320378	0,19993038425640707	0,000455809291	-1,1786155344904592	0,043975730257278861	0,82247499353628058
1	1	0	0	0	0	2	199620,10	0,200000003	2,28418303	0,00055535884408983917	0,19992915259098854	0,000456674781	-1,1114170710707909	0,041468465237796058	0,88967345695594931
1	1	0	0	0	0	2	200830,10	0,200000003	2,28856397	0,00055536440500534246	0,19993115452025651	0,00045755523	-1,0442183091757928	0,038961189081797402	0,95687221885094797
1	1	0	0	0	0	2	202040,10	0,200000003	2,29334521	0,00055535828748097018	0,19992895221182704	0,000458506111	-0,97702009423281459	0,036453933333313984	1,0240704337939259
1	1	0	0	0	0	2	203250,10	0,200000003	2,29829764	0,00055535854492502074	0,19992904489167075	0,000459496456	-0,90982154130924237	0,033946664974320186	1,0912689867174971
1	1	0	0	0	0	2	204460,10	0,200000003	2,30361223	0,00055537041840619514	0,19993331934422477	0,000460568845	-0,84262220766830848	0,031439367485711936	1,1584683203584314
1	1	0	0	0	0	2	205670,10	0,200000003	2,30907893	0,00055536359900815616	0,19993086436131478	0,000461656135	-0,77542309298530304	0,028932078166718394	1,2256674350414374
1	1	0	0	0	0	2	206880,10	0,200000003	2,31488872	0,0005553680004287097	0,19993244887246618	0,000462821365	-0,70822438451253798	0,026424804003975082	1,2928661435142029
1	1	0	0	0	0	2	208090,10	0,200000003	2,31980324	0,00055536932444655232	0,19993292551881494	0,000463805045	-0,6410259081075689	0,023917538499993248	1,3600646199191712
1	1	0	0	0	0	2	209300,10	0,200000003	2,32363176	0,00055536052998983194	0,19992975951489098	0,000464563142	-0,57382717900730253	0,021410263567610118	1,4272633490194371
1	1	0	0	0	0	2	210510,10	0,200000003	2,326051	0,00055535433486435149	0,19992752927006698	0,000465041638	-0,5066289781306025	0,018903008343958454	1,4944615498961379
1	1	0	0	0	0	2	211720,10	0,200000003	2,32740331	0,00055536824173231917	0,199932535741752	0,000465323654	-0,4394299254652713	0,016395721338927722	1,5616606025614678
1	1	0	0	0	0	2	212930,10	0,200000003	2,32820344	0,00055536536911709446	0,1999315016004329	0,000465481222	-0,37223129708163149	0,013888450164417349	1,6288592309451078
1	1	0	0	0	0	2	214140,10	0,200000003	2,32968926	0,00055536382463077696	0,19993094558544563	0,000465776975	-0,30503209703043142	0,011381157660221685	1,6960584309963082
1	1	0	0	0	0	2	215350,10	0,200000003	2,33085108	0,00055536433071146413	0,19993112777446448	0,000466009689	-0,23783266715346902	0,008873856580917824	1,7632578608732691
1	1	0	0	0	0	2	216560,10	0,200000003	2,33237505	0,00055536785788337389	0,19993239755615334	0,000466317346	-0,17063279968639594	0,0063665391745385882	1,8304577283403424
1	1	0	0	0	0	2	217770,10	0,200000003	2,3340323	0,00055536817058258592	0,19993251012785203	0,000466648926	-0,10343346301474294	0,0038592415728501376	1,8976570650119968
1	1	0	0	0	0	2	218980,10	0,200000003	2,33614659	0,00055536585649434067	0,19993167705621408	0,000467069709	-0,036234036440905984	0,0013519406167903286	1,9648564915858326
1	1	0	0	0	0	2	219600,10	0,200000003	2,33736563	0,00055535793215284742	0,19992882429372288	0,00046730676	-0,0018014119646172387	6,721310242401504E-005	1,9992891160621216

File: S vs Li GCPL 300µm_02_GCPL_C06_loop7.mpt
EC-Lab ASCII FILE
Nb header lines : 3
mode	ox/red	error	control changes	Ns changes	counter inc.	Ns	time/s	control/V/mA	Ewe/V	dq/mA.h	<I>/mA	P/W	(Q-Qo)/mA.h	x	Capacity/mA.h
1	0	0	1	1	0	1	494270,04	-0,200000003	2,33547997	0	0	0	0	0	0
1	0	0	1	0	0	1	495400,06	-0,200000003	2,26294422	-0,00055586558117800288	-0,20010775616066426	0,000452832697	-0,062810302558343693	0,0023435368378017536	0,062810302558343693
1	0	0	1	0	0	1	496530,08	-0,200000003	2,24031496	-0,00055586914683712858	-0,20010903978022221	0,000448307284	-0,12562342567327808	0,004687178914362185	0,12562342567327808
1	0	0	1	0	0	1	497660,11	-0,200000003	2,2144475	-0,00055587228027896755	-0,20011016779756438	0,000443133467	-0,18843686560587763	0,0070308328118156698	0,18843686560587763
1	0	0	1	0	0	1	498790,13	-0,200000003	2,17446518	-0,00055588361040833926	-0,20011424656094272	0,000435141468	-0,25125097773170973	0,0093745117897024346	0,25125097773170973
1	0	0	1	0	0	1	499920,15	-0,200000003	2,09766269	-0,00055587751713726259	-0,20011205302093235	0,000419767573	-0,31406593018469786	0,011718222121325219	0,31406593018469786
1	0	0	1	0	0	1	501050,17	-0,200000003	1,96487737	-0,00055587672099388307	-0,20011176642415258	0,000393195078	-0,37687987881833882	0,014061894999098514	0,37687987881833882
1	0	0	1	0	0	1	502180,19	-0,200000003	1,91868544	-0,00055585919407258432	-0,20010545684465725	0,000383939419	-0,43969326804185952	0,01640554700452809	0,43969326804185952
1	0	0	1	0	0	1	503310,21	-0,200000003	1,9096185	-0,00055586229020936627	-0,20010657144175539	0,000382127211	-0,50250577103905734	0,018749165943662013	0,50250577103905734
1	0	0	1	0	0	1	504440,24	-0,200000003	1,91792357	-0,00055586414430042112	-0,20010723890168326	0,000383790379	-0,56531880170994195	0,021092804571010656	0,56531880170994195
1	0	0	1	0	0	1	505570,26	-0,200000003	1,92769527	-0,00055586968766566784	-0,20010923446542938	0,000385749619	-0,6281323606377856	0,023436462908336688	0,6281323606377856
1	0	0	1	0	0	1	506700,28	-0,200000003	1,939448	-0,00055587572586205267	-0,20011140817660285	0,000388105662	-0,69094560685289613	0,025780109577930195	0,69094560685289613
1	0	0	1	0	0	1	507830,30	-0,200000003	1,95560098	-0,00055587685825344595	-0,20011181583664374	0,000391338865	-0,75375905373501158	0,028123763734679466	0,75375905373501158
1	0	0	1	0	0	1	508960,32	-0,200000003	1,96624887	-0,00055586775350984602	-0,20010853819205853	0,000393463182	-0,81657214707948787	0,030467404700464077	0,81657214707948787
1	0	0	1	0	0	1	510090,34	-0,200000003	1,9772588	-0,00055586917287111277	-0,20010904914645226	0,00039566739	-0,87938512552546816	0,032811041379231322	0,87938512552546816
1	0	0	1	0	0	1	511220,37	-0,200000003	1,98537326	-0,00055586388467748954	-0,20010714543922752	0,000397287367	-0,94219850362891827	0,035154692969756109	0,94219850362891827
1	0	0	1	0	0	1	512350,39	-0,200000003	1,99137354	-0,00055586996048192179	-0,2001093326867079	0,000398492441	-1,0050114665806669	0,037498329070412742	1,0050114665806669
1	0	0	1	0	0	1	513480,41	-0,200000003	1,99691653	-0,00055586346759398771	-0,20010699528739894	0,00039959696	-1,0678247098666507	0,039841975630716602	1,0678247098666507
1	0	0	1	0	0	1	514610,43	-0,200000003	2,00312638	-0,00055588869660927194	-0,20011607755336352	0,000400857796	-1,1306392132503458	0,042185669206960275	1,1306392132503458
1	0	0	1	0	0	1	515740,45	-0,200000003	2,00874543	-0,0005558865402175321	-0,20011530127660294	0,000401980709	-1,1934540377168126	0,044529374763233875	1,1934540377168126
1	0	0	1	0	0	1	516870,48	-0,200000003	2,01335526	-0,00055588764839619398	-0,20011570020392131	0,000402903999	-1,2562684927589902	0,046873066535790547	1,2562684927589902
1	0	0	1	0	0	1	518000,50	-0,200000003	2,01607919	-0,00055587428834620448	-0,20011089068319139	0,000403439393	-1,3190827641352794	0,049216751455525984	1,3190827641352794
1	0	0	1	0	0	1	519130,52	-0,200000003	2,01661253	-0,0005558889431233207	-0,20011616630603078	0,000403556769	-1,3818978298897187	0,051560466014578246	1,3818978298897187
1	0	0	1	0	0	1	520260,54	-0,200000003	2,01230764	-0,00055587981497910285	-0,20011288023738531	0,000402688689	-1,4447125623946099	0,053904168139641824	1,4447125623946099
1	0	0	1	0	0	1	521390,56	-0,200000003	1,99990714	-0,00055588306056211398	-0,20011404861778333	0,000400209508	-1,5075271900424797	0,056247866352348928	1,5075271900424797
1	0	0	1	0	0	1	522520,58	-0,200000003	1,96994424	-0,00055587409303668474	-0,20011082037777715	0,000394207163	-1,5703410485628403	0,058591535867874586	1,5703410485628403
1	0	0	1	0	0	1	523650,61	-0,200000003	1,9028945	-0,00055587586345026893	-0,20011145771439565	0,000380790996	-1,6331545807121475	0,060935193206057408	1,6331545807121475
1	0	0	1	0	0	1	524780,63	-0,200000003	1,76551867	-0,00055589905876500742	-0,20011990328502938	0,000353315438	-1,6959693069618742	0,063278895097732378	1,6959693069618742
1	1	0	0	0	0	2	525896,55	0,200000003	2,29065943	0,00055532459659129389	0,19991310079050381	0,000457932823	-1,7435555655618691	0,065054402386503334	0,0072191715154043507
1	1	0	0	0	0	2	527026,57	0,200000003	2,26566815	0,0005553258241415024	0,19991354270028067	0,000452937733	-1,6808037002019133	0,062713045919143091	0,069971036875360538
1	1	0	0	0	0	2	528156,59	0,200000003	2,25930595	0,0005553192904972368	0,19991119063251235	0,00045166054	-1,6180521101724064	0,06037169972473207	0,13272262690486672
1	1	0	0	0	0	2	529286,61	0,200000003	2,26153469	0,00055531557975543866	0,19990985479054954	0,000452103064	-1,5553006613968058	0,058030358800694208	0,19547407568046608
1	1	0	0	0	0	2	530416,64	0,200000003	2,26553488	0,0005553231606036425	0,19991258384465658	0,00045290892	-1,4925488826941299	0,055689005566633587	0,2582258543831415
1	1	0	0	0	0	2	531546,66	0,200000003	2,27039194	0,00055532908526973594	0,19991471668439958	0,000453884772	-1,4297964725910189	0,053347628774173798	0,32097826448625318
1	1	0	0	0	0	2	532676,68	0,200000003	2,27561116	0,00055533088748239814	0,19991536546877507	0,000454929628	-1,3670439025149315	0,051006246012907174	0,38373083456234061
1	1	0	0	0	0	2	533806,70	0,200000003	2,28100181	0,00055533589354157453	0,1999171676162377	0,000456011418	-1,3042907088098731	0,048664839983205171	0,44648402826739866
1	1	0	0	0	0	2	534936,72	0,200000003	2,28679252	0,0005553339176865088	0,19991645632177078	0,000457167451	-1,2415372067798514	0,04632342244948423	0,5092375302974199
1	1	0	0	0	0	2	536066,74	0,200000003	2,29250717	0,0005553411741314663	0,19991906859290208	0,000458315888	-1,1787831086489355	0,043981982674437466	0,57199162842833664
1	1	0	0	0	0	2	537196,76	0,200000003	2,29835486	0,00055535091977318125	0,19992257695803914	0,000459493021	-1,1160292102801533	0,041640550352784486	0,63474552679711949
1	1	0	0	0	0	2	538326,78	0,200000003	2,30446935	0,00055535047652820742	0,1999224173928449	0,000460715091	-1,0532747085324752	0,039299095518253658	0,69750002854479936
1	1	0	0	0	0	2	539456,81	0,200000003	2,31119347	0,00055533489814649024	0,19991680927142704	0,000462046417	-0,99052088399143706	0,036957665951213075	0,7602538530858368
1	1	0	0	0	0	2	540586,83	0,200000003	2,31755543	0,00055534603714942931	0,19992081924649488	0,000463327568	-0,9277672291065399	0,034616242714271219	0,82300750797073395
1	1	0	0	0	0	2	541716,85	0,200000003	2,32321286	0,00055534038351807328	0,19991878397742512	0,000464453886	-0,86501332703019213	0,032274810254283994	0,8857614100470816
1	1	0	0	0	0	2	542846,87	0,200000003	2,32755589	0,0005553529471101033	0,19992330677631683	0,000465332676	-0,80225878652179021	0,029933353973538432	0,94851595055548365
1	1	0	0	0	0	2	543976,89	0,200000003	2,3306036	0,00055535920960952838	0,19992556124308496	0,000465947232	-0,7395039916253065	0,02759188820123152	1,0112707454519674
1	1	0	0	0	0	2	545106,91	0,200000003	2,33226061	0,00055535622479352691	0,19992448672950173	0,000466276018	-0,67674894618512115	0,02525041308080224	1,0740257908921533
1	1	0	0	0	0	2	546236,93	0,200000003	2,33355594	0,00055534581470986214	0,19992073916975437	0,000466526224	-0,61399430784145485	0,022908953149691434	1,1367804292358203
1	1	0	0	0	0	2	547366,95	0,200000003	2,33456564	0,00055534899517976576	0,19992188411741978	0,000466730766	-0,55124010929067059	0,020567509627844362	1,1995346277866042
1	1	0	0	0	0	2	548496,98	0,200000003	2,33530831	0,00055534323684374496	0,1999198111553785	0,000466874393	-0,48848638280529894	0,018226083719392534	1,2622883542719752
1	1	0	0	0	0	2	549627,00	0,200000003	2,3360703	0,0005553461135700345	0,19992084675274144	0,000467029138	-0,42573241443750726	0,015884648785982403	1,3250423226397666
1	1	0	0	0	0	2	550757,02	0,200000003	2,33683228	0,000555347512844536	0,1999213504867576	0,000467182661	-0,36297804671676512	0,01354319895217675	1,3877966903605093
1	1	0	0	0	0	2	551887,04	0,200000003	2,3378799	0,0005553463784356912	0,19992094210724205	0,000467391161	-0,30022395985292371	0,011201759597519682	1,4505507772243494
1	1	0	0	0	0	2	553017,06	0,200000003	2,33923244	0,00055534933217366534	0,19992200542829085	0,000467664038	-0,2374692685035721	0,008860297688695488	1,5133054685737008
1	1	0	0	0	0	2	554147,08	0,200000003	2,34121346	0,00055534897957245504	0,19992187849889341	0,000468059792	-0,1747150425620208	0,0065188531448620723	1,5760596945152522
1	1	0	0	0	0	2	555277,10	0,200000003	2,34399438	0,00055533981066693862	0,19991857775488909	0,000468608021	-0,11196104127786416	0,0041774169832981056	1,6388136957994086
1	1	0	0	0	0	2	556407,12	0,200000003	2,34694695	0,00055534817473259232	0,19992158875500147	0,000469205377	-0,049206865713402816	0,0018359743191016483	1,7015678713638698
1	1	0	0	0	0	2	557537,15	0,200000003	2,35048985	0,00055535944395263987	0,19992564560502096	0,000469923194	0,013547635324479616	-0,00050548048894575366	1,7643223724017514
1	1	0	0	0	0	2	558667,17	0,200000003	2,35460424	0,00055534220605095226	0,19991944007694125	0,000470731175	0,076301804699532493	-0,0028469229222070595	1,8270765417768045
1	1	0	0	0	0	2	559797,19	0,200000003	2,35883307	0,00055535062434607085	0,19992247059929437	0,000471583742	0,13905617148281122	-0,0051883727210346893	1,8898309085600842
1	1	0	0	0	0	2	560927,21	0,200000003	2,36378551	0,00055535664174622963	0,1999246368296561	0,000472578948	0,20181085128120733	-0,0075298341988772032	1,95258558835848
1	1	0	0	0	0	2	561766,50	0,200000003	2,36744285	0,0005153791899780432	0,1999275176608017	0,000473316963	0,24842071297447114	-0,0092689108062784243	1,9991954500517443

File: S vs Li GCPL 300µm_04_OCV_C06_loop0.mpt
EC-Lab ASCII FILE
Nb header lines : 3
mode	error	time/s	Ewe/V
3	0	764356,66	2,36203313
3	0	764416,66	2,3472898
3	0	764476,66	2,3437469
3	0	764536,66	2,34109902
3	0	764596,66	2,33923244
3	0	764656,66	2,33753705
3	0	764716,66	2,33633709
3	0	764776,66	2,33496547
3	0	764836,66	2,33378458
3	0	764896,66	2,33275604
3	0	764956,66	2,33180356
3	0	765016,66	2,33098459
3	0	765076,66	2,33003211
3	0	765136,66	2,32913685
3	0	765196,66	2,32826066
3	0	765256,66	2,3277843
3	0	765316,66	2,32730818
3	0	765376,66	2,32666063
3	0	765436,66	2,32587957
3	0	765496,66	2,3253653
3	0	765556,66	2,32483196
3	0	765616,66	2,32391763
3	0	765676,66	2,32370806
3	0	765736,66	2,32311749
3	0	765796,66	2,32256508
3	0	765856,66	2,32218409
3	0	765916,66	2,32161283
3	0	765976,66	2,32107949
3	0	766036,66	2,32039356
3	0	766096,66	2,32022214
3	0	766156,66	2,31957459
3	0	766216,66	2,3191936
3	0	766276,66	2,31873655
3	0	766336,66	2,31837463
3	0	766396,66	2,31789827
3	0	766456,66	2,31782222
3	0	766516,66	2,31734586
3	0	766576,67	2,31717443
3	0	766636,67	2,31685066
3	0	766696,67	2,31627917
3	0	766756,67	2,31580305
3	0	766816,67	2,3156507
3	0	766876,67	2,31519341
3	0	766936,67	2,31481242
3	0	766996,67	2,31456494
3	0	767056,67	2,3143363
3	0	767116,67	2,3138411
3	0	767176,67	2,31351733
3	0	767236,67	2,31342196
3	0	767296,67	2,31296492
3	0	767356,67	2,31275535
3	0	767416,67	2,3124125
3	0	767476,67	2,31218386
3	0	767536,67	2,3119173
3	0	767596,67	2,31161237
3	0	767656,67	2,3112886
3	0	767716,67	2,3110981
3	0	767776,67	2,31088853
3	0	767836,67	2,3104887
3	0	767896,67	2,31026006
3	0	767956,67	2,31012678
3	0	768016,67	2,3097837
3	0	768076,67	2,30949807
3	0	768136,67	2,30921245
3	0	768196,67	2,3089838
3	0	768256,67	2,30883145
3	0	768316,67	2,30860281
3	0	768376,67	2,30827904
3	0	768436,67	2,30791712
3	0	768496,67	2,30787897
3	0	768556,67	2,30759335
3	0	768616,67	2,30749798
3	0	768676,67	2,30721235
3	0	768736,67	2,30704093
3	0	768796,67	2,30675507
3	0	768856,67	2,30664086
3	0	768916,67	2,30650759
3	0	768976,67	2,30629802
3	0	769036,67	2,3059361
3	0	769096,67	2,30582166
3	0	769156,67	2,30566931
3	0	769216,67	2,30540276
3	0	769276,67	2,30509782
3	0	769336,67	2,30490756
3	0	769396,67	2,30483127
3	0	769456,67	2,30475497
3	0	769516,67	2,30458355
3	0	769576,67	2,30439305
3	0	769636,67	2,30408835
3	0	769696,67	2,3038218
3	0	769756,67	2,30385971
3	0	769816,67	2,30359316
3	0	769876,67	2,30336452
3	0	769936,67	2,30330729
3	0	769996,67	2,30304074
3	0	770056,67	2,30298352
3	0	770116,67	2,30279303
3	0	770176,67	2,30258346
3	0	770236,67	2,30243111
3	0	770296,67	2,30216455
3	0	770356,67	2,30210733
3	0	770416,67	2,30201221
3	0	770476,67	2,30184078
3	0	770536,67	2,30157399
3	0	770596,67	2,3013835
3	0	770656,67	2,30128837
3	0	770716,67	2,30132627
3	0	770776,67	2,30111694
3	0	770836,67	2,30094552
3	0	770896,67	2,30065966
3	0	770956,67	2,30067873
3	0	771016,67	2,30060244
3	0	771076,67	2,30033588
3	0	771136,67	2,30035496
3	0	771196,67	2,29999304
3	0	771256,67	2,30008817
3	0	771316,68	2,29968834
3	0	771376,68	2,29961205
3	0	771436,68	2,29963112
3	0	771496,68	2,29947877
3	0	771556,68	2,29947877
3	0	771616,68	2,29930735
3	0	771676,68	2,29894543
3	0	771736,68	2,29890728
3	0	771796,68	2,29867864
3	0	771856,68	2,29867864
3	0	771916,68	2,29854536
3	0	771976,68	2,29846907
3	0	772036,68	2,29831672
3	0	772096,68	2,29822159
3	0	772156,68	2,29822159
3	0	772216,68	2,29808807
3	0	772276,68	2,29806924
3	0	772336,68	2,29801202
3	0	772396,68	2,2977643
3	0	772456,68	2,29766917
3	0	772516,68	2,2975738
3	0	772576,68	2,2975359
3	0	772636,68	2,29755473
3	0	772696,68	2,29738331
3	0	772756,68	2,2971549
3	0	772816,68	2,29717398
3	0	772876,68	2,29692626
3	0	772936,68	2,29679298
3	0	772996,68	2,29660249
3	0	773056,68	2,29656434
3	0	773116,68	2,29652619
3	0	773176,68	2,29629755
3	0	773236,68	2,29641199
3	0	773296,68	2,2963357
3	0	773356,68	2,29608822
3	0	773416,68	2,29612613
3	0	773476,68	2,29578328
3	0	773536,68	2,2959168
3	0	773596,68	2,2957263
3	0	773656,68	2,29566908
3	0	773716,68	2,29559278
3	0	773776,68	2,29555488
3	0	773836,68	2,29534531
3	0	773896,68	2,29521179
3	0	773956,68	2,29511666
3	0	774016,68	2,29509759
3	0	774076,68	2,29504037
3	0	774136,68	2,29486895
3	0	774196,68	2,29458332
3	0	774256,68	2,29458332
3	0	774316,68	2,29445004
3	0	774376,68	2,29456425
3	0	774436,68	2,29445004
3	0	774496,68	2,29437375
3	0	774556,68	2,29424047
3	0	774616,68	2,29399276
3	0	774676,68	2,2940309
3	0	774736,68	2,29404998
3	0	774796,68	2,29395461
3	0	774856,68	2,29380226
3	0	774916,68	2,29376435
3	0	774976,68	2,29376435
3	0	775036,68	2,29361176
3	0	775096,68	2,29336429
3	0	775156,65	2,29338336