Folder: thesis/Experimentelles/Rohdaten/Batteriemessungen/AlteZelle/Studenten_Batterietests/S vs Li GCPL 300µm/ZView-Export

Note: README.md
# thesis

Zusammenfassung
---------------
Es konnten die Festkörperelektrolytkeramiken LATP, LAGP, LTO und LLTO hergestellt,
mit XRD und MAS-NMR charakterisiert und zu Elektrodensuspensionen weiterverarbeitet
werden. Aus den Daten der MAS-NMR konnten dabei gegenüber der XRD keine Mehrinfor-
mationen gewonnen werden. Die mit den Suspensionen gegossenen und gestanzten Elektro-
denproben wurden mittels REM und EDX untersucht und als Kathode in Testzellen verbaut.
Mit diesen wurden Ladekennlinien erstellt und eine zyklischer Voltametrie durchgeführt. Aus
den Ladekennlinien konnten die Kapazitäten und der Grad der Lithiuminsertation in die
Materialen bestimmt werden. Die zyklische Voltametrie lieferte nicht-reaktive Spannungsbe-
reiche der Materialien.

Für ein noch besseres Verständnis der Lithiumbewegung und -insertation wurde eine in-situ
NMR-Testzelle konzipiert, konstruiert, gebaut und getestet. Für den Test kam dabei eine
Lithium-Schwefel-Zelle zum Einsatz, für welche ein Di?usionskoe?zient sowie ein Spektrum
vor und nach einer 90 minütigen Ladezeit aufgenommen worden ist.

Abstract
--------
The all solid state electrolyte ceramics LATP, LAGP, LTO, and LLTO were successfully
synthesized and characterized by using XRD. MAS-NMR spectroscopy were not able to ge-
nerate additional information. All powders were processed to electrode slurries, casted on
aluminum foils and punched to electrode samples. Those samples were studied by SEM and
EDX and then build into battery test cells. The cells were analyzed by measuring the charge
curves as well as cyclic voltammetry. With the charge curves capacities and the amount of
lithium insertion were calculated. The cyclic voltammetry was able to detect non-reactive
voltage regions.

To be able to better understand lithium movement and insertion a novel in-situ NMR sample
cell was designed, constructed, built and tested. Therefore, a lithium-sulfur-cell was built into
the in-situ sample cell. With this setting a diffusion coeffcient as well as a NMR spectrum
before and after 90 minutes of charging were measured.

File: S vs Li GCPL 300µm_02_GCPL_C06_loop5.txt
EC-Lab ASCII FILE
Nb header lines : 3
mode	ox/red	error	control changes	Ns changes	counter inc.	Ns	time/s	control/V/mA	Ewe/V	dq/mA.h	<I>/mA	P/W	(Q-Qo)/mA.h	x	Capacity/mA.h
1	0	0	1	1	0	1	357700,44	-0,200000003	2,32873678	0	0	0	0	0	0
1	0	0	1	0	0	1	358840,46	-0,200000003	2,26229668	-0,00055587790760563475	-0,20011219359615802	0,000452713139	-0,063366884743183872	0,002364303667450847	0,063366884743183872
1	0	0	1	0	0	1	359980,48	-0,200000003	2,2398386	-0,0005558758566859696	-0,20011145527929478	0,000448217354	-0,12673720289665794	0,0047287354400558906	0,12673720289665794
1	0	0	1	0	0	1	361120,50	-0,200000003	2,21160913	-0,00055587809230718349	-0,20011226008277616	0,000442570104	-0,19010751420749642	0,007093166957353001	0,19010751420749642
1	0	0	1	0	0	1	362260,53	-0,200000003	2,16496015	-0,00055587407101276851	-0,20011081244000182	0,000433231937	-0,25347733398449827	0,009457580134861792	0,25347733398449827
1	0	0	1	0	0	1	363400,55	-0,200000003	2,08509088	-0,00055587163656039366	-0,20010993606333981	0,000417247415	-0,31684718313368006	0,011821994408286109	0,31684718313368006
1	0	0	1	0	0	1	364540,57	-0,200000003	1,98807812	-0,00055586934542159245	-0,20010911125993456	0,00039783254	-0,38021690226776883	0,014186403830672496	0,38021690226776883
1	0	0	1	0	0	1	365680,59	-0,200000003	1,96306789	-0,00055588446325808768	-0,20011455357861088	0,000392838469	-0,44358609148985542	0,01655079348132961	0,44358609148985542
1	0	0	1	0	0	1	366820,61	-0,200000003	1,96645844	-0,00055586893187959994	-0,20010896239700192	0,000393505965	-0,50695563785316986	0,018915196457406115	0,50695563785316986
1	0	0	1	0	0	1	367960,64	-0,200000003	1,97344911	-0,00055587099632041331	-0,20010970558138477	0,000394906325	-0,57032454285534739	0,021279575503436282	0,57032454285534739
1	0	0	1	0	0	1	369100,66	-0,200000003	1,9824208	-0,00055586772086802458	-0,20010852643424048	0,000396699295	-0,63369367572990374	0,02364396305169128	0,63369367572990374
1	0	0	1	0	0	1	370240,68	-0,200000003	1,99499261	-0,00055586345803075373	-0,20010699184935997	0,000399211975	-0,6970625141358345	0,026008339612925942	0,6970625141358345
1	0	0	1	0	0	1	371380,70	-0,200000003	2,00537395	-0,00055586832026557792	-0,20010874222019344	0,000401292869	-0,76043222882883699	0,02837274886960943	0,76043222882883699
1	0	0	1	0	0	1	372520,72	-0,200000003	2,01345038	-0,00055587445886350342	-0,20011095206357792	0,000402913487	-0,82380233468615552	0,030737172721159475	0,82380233468615552
1	0	0	1	0	0	1	373660,75	-0,200000003	2,02099347	-0,00055587837236126259	-0,20011236089564426	0,00040442578	-0,88717198212068621	0,03310157946833895	0,88717198212068621
1	0	0	1	0	0	1	374800,77	-0,200000003	2,0268414	-0,0005558714654362864	-0,20010987445984736	0,000405590981	-0,95054166063063885	0,035465987374984198	0,95054166063063885
1	0	0	1	0	0	1	375940,79	-0,200000003	2,03312731	-0,00055587175906946253	-0,20010998016575542	0,000406849053	-1,0139109899033667	0,03783038225111904	1,0139109899033667
1	0	0	1	0	0	1	377080,81	-0,200000003	2,03922272	-0,00055587426566746496	-0,2001108825166728	0,000408070657	-1,0772805552495211	0,040194785935470822	1,0772805552495211
1	0	0	1	0	0	1	378220,83	-0,200000003	2,04472756	-0,00055587325952036518	-0,20011052031767978	0,000409171509	-1,1406506360136606	0,042559208850760614	1,1406506360136606
1	0	0	1	0	0	1	379360,86	-0,200000003	2,04821348	-0,00055586822867062349	-0,2001087092466448	0,000409865344	-1,2040203898911854	0,044923619569471322	1,2040203898911854
1	0	0	1	0	0	1	380500,88	-0,200000003	2,04971838	-0,00055586912516338957	-0,20010903197316736	0,000410167151	-1,2673893216041374	0,047287999612116397	1,2673893216041374
1	0	0	1	0	0	1	381640,90	-0,200000003	2,04952788	-0,00055586780752324397	-0,20010855762718928	0,000410128065	-1,3307585386043674	0,049652390299213389	1,3307585386043674
1	0	0	1	0	0	1	382780,92	-0,200000003	2,04613733	-0,00055587674124373325	-0,20011177371395827	0,000409456174	-1,3941280694130762	0,052016792694926643	1,3941280694130762
1	0	0	1	0	0	1	383920,94	-0,200000003	2,03440356	-0,00055586533598684608	-0,20010766790053594	0,000407099753	-1,457497403359215	0,054381187745432736	1,457497403359215
1	0	0	1	0	0	1	385060,97	-0,200000003	2,00695491	-0,00055587125513868211	-0,20010979874950842	0,000401611353	-1,520866916788281	0,056745589492688141	1,520866916788281
1	0	0	1	0	0	1	386200,99	-0,200000003	1,95908678	-0,00055585723265757158	-0,20010475075816643	0,000392022572	-1,5842352970342634	0,05910994895935913	1,5842352970342634
1	0	0	1	0	0	1	387341,01	-0,200000003	1,88205576	-0,00055586533418877261	-0,20010766725324192	0,000376613782	-1,6476037217963696	0,061474310086986547	1,6476037217963696
1	0	0	1	0	0	1	388481,03	-0,200000003	1,75317538	-0,00055585870479957926	-0,20010528071209638	0,000350819639	-1,7109719218930688	0,063838662832045568	1,7109719218930688
1	0	0	1	0	0	1	389621,05	-0,200000003	1,50484359	-0,00055586510225550995	-0,20010758375887507	0,000301130611	-1,7743402199988813	0,066203019233956352	1,7743402199988813
1	1	0	0	0	0	2	390742,54	0,200000003	2,26814437	0,0005553606147012777	0,19992597173627424	0,000453460962	-1,7144434468626586	0,063968190096175923	0,061089911152535834
1	1	0	0	0	0	2	391882,56	0,200000003	2,2544868	0,00055535886970741875	0,1999253435435985	0,000450729043	-1,6511323399128966	0,06160596757319168	0,12440101810229816
1	1	0	0	0	0	2	393022,58	0,200000003	2,25602961	0,0005553708086692624	0,1999296414940879	0,000451047177	-1,587821149199943	0,05924374192489015	0,18771220881525254
1	1	0	0	0	0	2	394162,61	0,200000003	2,2596488	0,00055536714093635482	0,19992832113566451	0,000451767788	-1,5245098885768362	0,05688151366814679	0,2510234694383599
1	1	0	0	0	0	2	395302,63	0,200000003	2,26401091	0,00055537339714583418	0,19993057332305645	0,000452645007	-1,461198227407127	0,054519270466471181	0,31433513060806848
1	1	0	0	0	0	2	396442,65	0,200000003	2,26884913	0,00055536090053535168	0,19992607462524998	0,000453602115	-1,3978874774202238	0,052157061262251149	0,37764588059497139
1	1	0	0	0	0	2	397582,67	0,200000003	2,27330637	0,00055536729761378637	0,19992837753845386	0,000454498455	-1,3345762503627536	0,049794834257886829	0,44095710765244179
1	1	0	0	0	0	2	398722,69	0,200000003	2,27843046	0,00055536974084211725	0,19992925707440768	0,000455524918	-1,2712647772241514	0,047432598071904621	0,50426858079104294
1	1	0	0	0	0	2	399862,72	0,200000003	2,28326869	0,0005553738537116183	0,19993073768357398	0,000456495589	-1,2079525303132042	0,045070333015435866	0,56758082770198957
1	1	0	0	0	0	2	401002,74	0,200000003	2,28854513	0,00055538244373351334	0,19993383003656822	0,000457557588	-1,1446400599638834	0,042708059622180979	0,63089329805131072
1	1	0	0	0	0	2	402142,76	0,200000003	2,29393578	0,00055538379664719104	0,19993431707611427	0,000458636496	-1,0813277058495002	0,040345790565807891	0,69420565216569587
1	1	0	0	0	0	2	403282,78	0,200000003	2,29940248	0,00055536763837188486	0,19992850020202502	0,000459716102	-1,0180156296451138	0,037983531878630445	0,75751772837008179
1	1	0	0	0	0	2	404422,80	0,200000003	2,30538368	0,00055536679762353498	0,19992819754542912	0,000460911193	-0,95470381474779469	0,035621282941171008	0,82082954326740019
1	1	0	0	0	0	2	405562,82	0,200000003	2,31155539	0,00055537025901261306	0,19992944362150413	0,000462147989	-0,89139204508324096	0,033259035691406867	0,88414131293195392
1	1	0	0	0	0	2	406702,85	0,200000003	2,31753635	0,00055537823252048762	0,19993231402441459	0,000463350414	-0,82807975812708902	0,030896769140797683	0,94745359988810586
1	1	0	0	0	0	2	407842,87	0,200000003	2,3227365	0,00055535758162620992	0,19992487984096445	0,000464372803	-0,76476778601755354	0,028534514337539082	1,010765571997641
1	1	0	0	0	0	2	408982,89	0,200000003	2,32631755	0,00055537032865484557	0,19992946869222512	0,000465099438	-0,70145616566521331	0,026172272658814371	1,0740771923499816
1	1	0	0	0	0	2	410122,91	0,200000003	2,32847023	0,0005553688666390048	0,19992894236734685	0,000465528603	-0,63814460143758797	0,02381003307417824	1,1373887565776074
1	1	0	0	0	0	2	411262,93	0,200000003	2,32965112	0,00055536452042145869	0,19992737776381155	0,000465761026	-0,57483346118162662	0,021447809308494922	1,2006998968335686
1	1	0	0	0	0	2	412402,96	0,200000003	2,33039403	0,00055536079869170982	0,19992603797155446	0,000465906458	-0,51152207005456685	0,019085576182473626	1,2640112879606293
1	1	0	0	0	0	2	413542,98	0,200000003	2,33132744	0,00055537177000525926	0,19992998756838314	0,000466102269	-0,44821026735631194	0,016723327700177677	1,3273230906588827
1	1	0	0	0	0	2	414683,00	0,200000003	2,33191776	0,00055537743448383283	0,1999320267344231	0,000466225058	-0,38489804310539168	0,014361063489184998	1,3906353149098026
1	1	0	0	0	0	2	415823,02	0,200000003	2,33235598	0,00055538835196031462	0,19993595695726301	0,000466321828	-0,32158507503839904	0,011998771525414589	1,4539482829767952
1	1	0	0	0	0	2	416963,04	0,200000003	2,33313704	0,00055537808280934893	0,19993226013409738	0,000466469355	-0,25827205609958454	0,0096364776635481062	1,5172613019156102
1	1	0	0	0	0	2	418103,07	0,200000003	2,33483219	0,00055541054795434074	0,19994394735660269	0,000466835569	-0,19495771333556458	0,0072741344079833075	1,5805756446796285
1	1	0	0	0	0	2	419243,09	0,200000003	2,33698463	0,00055541665234747866	0,19994614489116362	0,000467271078	-0,13164122020968472	0,0049117109195263226	1,6438921378055088
1	1	0	0	0	0	2	420383,11	0,200000003	2,33915615	0,00055538893415613306	0,19993616654372208	0,000467681908	-0,068324893633490714	0,0025492936452620458	1,707208464381703
1	1	0	0	0	0	2	421523,13	0,200000003	2,34184194	0,00055537072023500998	0,19992960964906026	0,000468203536	-0,0050122444587938797	0,00018701357979194749	1,7705211135564
1	1	0	0	0	0	2	422663,15	0,200000003	2,34513736	0,00055536920085052653	0,1999290626858329	0,000468861108	0,05829954494557184	-0,0021752344064911235	1,8338329029607651
1	1	0	0	0	0	2	423803,18	0,200000003	2,34868026	0,00055536288369943699	0,19992678855988374	0,000469564111	0,12161122269039834	-0,0045374782266066592	1,8971445807055904
1	1	0	0	0	0	2	424943,20	0,200000003	2,3523376	0,00055535932608611053	0,19992550784374627	0,000470292289	0,18492270519531264	-0,0068997147620585664	1,9604560632105059
1	1	0	0	0	0	2	425642,49	0,200000003	2,35473752	0,00051538106505821152	0,19992814989433709	0,000470778323	0,22375808198676765	-0,0083487148848671782	1,999291440001961

File: S vs Li GCPL 300µm_02_GCPL_C06_loop6.txt
EC-Lab ASCII FILE
Nb header lines : 3
mode	ox/red	error	control changes	Ns changes	counter inc.	Ns	time/s	control/V/mA	Ewe/V	dq/mA.h	<I>/mA	P/W	(Q-Qo)/mA.h	x	Capacity/mA.h
1	0	0	1	1	0	1	425642,54	-0,200000003	2,33549881	0	0	0	0	0	0
1	0	0	1	0	0	1	426792,56	-0,200000003	2,26496339	-0,00055587710172351872	-0,20011190347952317	0,000453246146	-0,063922185831080576	0,0023850226976505264	0,063922185831080576
1	0	0	1	0	0	1	427942,59	-0,200000003	2,24269605	-0,00055587784322351213	-0,20011217040972189	0,000448790786	-0,12784750400859934	0,0047701622673581466	0,12784750400859934
1	0	0	1	0	0	1	429092,61	-0,200000003	2,21802855	-0,00055588081886619328	-0,2001132416297793	0,000443856872	-0,19177333873765174	0,0071553211102979968	0,19177333873765174
1	0	0	1	0	0	1	430242,63	-0,200000003	2,17884636	-0,00055588014487177126	-0,20011299898714096	0,000436015485	-0,25569981501513485	0,0095405038902723686	0,25569981501513485
1	0	0	1	0	0	1	431392,65	-0,200000003	2,10404396	-0,00055588783392310138	-0,20011576699698118	0,000421052362	-0,31962654774313696	0,011925696238760406	0,31962654774313696
1	0	0	1	0	0	1	432542,68	-0,200000003	1,98240173	-0,00055588306446125107	-0,20011405002843446	0,000396706426	-0,3835536222028329	0,014310901337717402	0,3835536222028329
1	0	0	1	0	0	1	433692,70	-0,200000003	1,93847656	-0,00055587425127542682	-0,20011087734262749	0,000387910259	-0,44747993303328096	0,016696077944640454	0,44747993303328096
1	0	0	1	0	0	1	434842,72	-0,200000003	1,94053376	-0,00055588526817162822	-0,20011484334190614	0,000388329616	-0,51140614618802048	0,019081250907151488	0,51140614618802048
1	0	0	1	0	0	1	435992,74	-0,200000003	1,94468629	-0,00055587972295615405	-0,20011284710976163	0,000389156718	-0,57533262775131302	0,021466433884346512	0,57533262775131302
1	0	0	1	0	0	1	437142,76	-0,200000003	1,95059121	-0,00055587554493546483	-0,20011134305127405	0,000390335423	-0,6392588584414089	0,023851607501125274	0,6392588584414089
1	0	0	1	0	0	1	438292,79	-0,200000003	1,96083915	-0,00055588583825031917	-0,20011504856395366	0,000392393413	-0,70318457633795776	0,026236761984887331	0,70318457633795776
1	0	0	1	0	0	1	439442,81	-0,200000003	1,9760778	-0,00055588798935049107	-0,2001158229451049	0,000395444426	-0,76711127169591488	0,028621952939048749	0,76711127169591488
1	0	0	1	0	0	1	440592,83	-0,200000003	1,98964012	-0,00055587807159125798	-0,2001122526298457	0,000398151373	-0,83103807255216269	0,031007147829493229	0,83103807255216269
1	0	0	1	0	0	1	441742,85	-0,200000003	1,99866903	-0,00055589127988616634	-0,20011700752445763	0,000399967656	-0,89496513054208474	0,033392352313940819	0,89496513054208474
1	0	0	1	0	0	1	442892,87	-0,200000003	2,0040977	-0,00055588702221794266	-0,2001154747864209	0,000401050958	-0,95889278419478835	0,035777579023367667	0,95889278419478835
1	0	0	1	0	0	1	444042,90	-0,200000003	2,00866938	-0,00055588704996224909	-0,20011548478116771	0,000401965837	-1,0228195995288563	0,038162774453999085	1,0228195995288563
1	0	0	1	0	0	1	445192,92	-0,200000003	2,01508856	-0,00055588577754298842	-0,20011502671905382	0,000403249491	-1,0867468944875371	0,04054798778006967	1,0867468944875371
1	0	0	1	0	0	1	446342,94	-0,200000003	2,02190781	-0,00055588479496373069	-0,2001146729926727	0,000404613413	-1,1506739416959544	0,042933191862244819	1,1506739416959544
1	0	0	1	0	0	1	447492,96	-0,200000003	2,02825093	-0,00055588398315757504	-0,20011438074342467	0,000405882165	-1,2146005903324798	0,045318381073166803	1,2146005903324798
1	0	0	1	0	0	1	448642,99	-0,200000003	2,03276539	-0,00055588367948846688	-0,20011427143396899	0,000406785373	-1,2785271111335426	0,047703565514375789	1,2785271111335426
1	0	0	1	0	0	1	449793,01	-0,200000003	2,03468919	-0,00055587643638004858	-0,20011166395582675	0,000407165033	-1,3424528657191645	0,050088721367056499	1,3424528657191645
1	0	0	1	0	0	1	450943,03	-0,200000003	2,03385115	-0,00055588164962165882	-0,20011354068899965	0,000407001149	-1,4063786547599362	0,052473878505305165	1,4063786547599362
1	0	0	1	0	0	1	452093,05	-0,200000003	2,03032708	-0,00055587161581052678	-0,20010992859353155	0,0004062886	-1,4703043753672259	0,054859033090208608	1,4703043753672259
1	0	0	1	0	0	1	453243,07	-0,200000003	2,02352691	-0,00055586977971179616	-0,20010926761071571	0,000404926483	-1,5342302654711398	0,057244193999259002	1,5342302654711398
1	0	0	1	0	0	1	454393,10	-0,200000003	2,00383115	-0,00055587849699954189	-0,20011240576922	0,00040099147	-1,598156214202464	0,059629357095776896	1,598156214202464
1	0	0	1	0	0	1	455543,12	-0,200000003	1,96091533	-0,00055586851239866682	-0,20010881137745555	0,00039239644	-1,6620816061045494	0,062014499416247219	1,6620816061045494
1	0	0	1	0	0	1	456693,14	-0,200000003	1,88369381	-0,00055587438641571334	-0,20011092599219392	0,000376947719	-1,726006758320049	0,064399632793688755	1,726006758320049
1	0	0	1	0	0	1	457843,16	-0,200000003	1,72039342	-0,00055586875710967514	-0,20010889947172234	0,000344266038	-1,789931989984937	0,066784769135493798	1,789931989984937
1	1	0	0	0	0	2	458980,03	0,200000003	2,28606868	0,00055535320653435251	0,19992330484054976	0,000457038404	-1,7742286867748717	0,066198857779410547	0,039430285145320813
1	1	0	0	0	0	2	460130,05	0,200000003	2,25799155	0,00055535690739585293	0,19992463713201901	0,000451428146	-1,7103624646074019	0,063815923161293299	0,10329650731279037
1	1	0	0	0	0	2	461280,07	0,200000003	2,25774407	0,00055535489190783763	0,19992391157030413	0,00045137704	-1,6464969711970435	0,061433015734083674	0,16716200072314835
1	1	0	0	0	0	2	462430,10	0,200000003	2,26102042	0,00055535007836752474	0,19992217872915718	0,000452028122	-1,5826318251015942	0,059050121265660301	0,23102714681859725
1	1	0	0	0	0	2	463580,12	0,200000003	2,2657063	0,00055534610896060864	0,19992074976087251	0,000452961714	-1,5187662758576771	0,056667211755225542	0,29489269606251507
1	1	0	0	0	0	2	464730,14	0,200000003	2,27039194	0,00055535828309837312	0,19992513237539043	0,000453908404	-1,4549006982836045	0,054284301187754592	0,35875827363658925
1	1	0	0	0	0	2	465880,16	0,200000003	2,27580166	0,0005553668343250951	0,19992821074842666	0,000454996945	-1,3910342332376115	0,051901357507513075	0,42262473868258118
1	1	0	0	0	0	2	467030,19	0,200000003	2,28142095	0,00055537884931017952	0,19993253606442832	0,000456130278	-1,3271662479350253	0,049518357104454054	0,48649272398516755
1	1	0	0	0	0	2	468180,21	0,200000003	2,28665924	0,00055535989236003827	0,19992571169843504	0,000457161979	-1,2632988954425947	0,047135380312392774	0,55036007647759808
1	1	0	0	0	0	2	469330,23	0,200000003	2,29174519	0,00055535530087269018	0,19992405879481622	0,000458174996	-1,1994327138684339	0,044752447208866451	0,61422625805176128
1	1	0	0	0	0	2	470480,25	0,200000003	2,29709768	0,0005553619725331664	0,19992646053935997	0,000459250616	-1,1355662545892704	0,042369503743793094	0,67809271733092582
1	1	0	0	0	0	2	471630,27	0,200000003	2,30290747	0,00055536205548793075	0,1999264904001727	0,000460412208	-1,0716998692507045	0,039986563037542848	0,74195910266949222
1	1	0	0	0	0	2	472780,30	0,200000003	2,30885053	0,00055535741489297818	0,19992481982746634	0,00046159653	-1,0078343143813418	0,037603653317215149	0,80582465753885606
1	1	0	0	0	0	2	473930,32	0,200000003	2,31467915	0,00055534215827037888	0,19991932753977462	0,0004627491	-0,94396922133270528	0,035220760828039674	0,86968975058749338
1	1	0	0	0	0	2	475080,34	0,200000003	2,32035565	0,00055535223092304333	0,19992295362956845	0,000463892356	-0,88010366317641229	0,032837850985072192	0,93355530874378624
1	1	0	0	0	0	2	476230,36	0,200000003	2,32511759	0,00055535060272283021	0,19992236749343254	0,000464843004	-0,8162383117096512	0,030454948853969043	0,99742066021054733
1	1	0	0	0	0	2	477380,38	0,200000003	2,32827973	0,0005553539463323024	0,19992357116966582	0,000465477991	-0,75237284811461658	0,028072042539209248	1,0612861238055811
1	1	0	0	0	0	2	478530,41	0,200000003	2,3304131	0,00055534427521046662	0,19992008962585965	0,000465896388	-0,68850773447537728	0,025689149281770698	1,1251512374448187
1	1	0	0	0	0	2	479680,43	0,200000003	2,33191776	0,0005553523104662697	0,19992298226923331	0,000466203957	-0,6246420883780983	0,02330623615760679	1,1890168835420984
1	1	0	0	0	0	2	480830,45	0,200000003	2,33262253	0,00055536082759913472	0,19992604837802704	0,000466352009	-0,5607754199350423	0,020923284888347382	1,2528835519851539
1	1	0	0	0	0	2	481980,47	0,200000003	2,33330846	0,00055535341435174144	0,19992337965104189	0,000466482918	-0,4969090607977767	0,018540345159702883	1,3167499111224181
1	1	0	0	0	0	2	483130,50	0,200000003	2,33376551	0,00055535355981439347	0,19992343201658832	0,00046657442	-0,4330433243578937	0,01615742866473495	1,3806156475623011
1	1	0	0	0	0	2	484280,52	0,200000003	2,33405113	0,0005553510979546441	0,19992254577345277	0,000466629455	-0,36917724854176832	0,01377449950718312	1,4444817233784262
1	1	0	0	0	0	2	485430,54	0,200000003	2,33509898	0,00055535760658979418	0,1999248888369913	0,000466844416	-0,30531125291904256	0,01139157334175485	1,5083477190011514
1	1	0	0	0	0	2	486580,56	0,200000003	2,33654666	0,00055537816836684947	0,19993229092722208	0,000467151112	-0,24144465748601699	0,0090086247965978394	1,5722143144341776
1	1	0	0	0	0	2	487730,58	0,200000003	2,33831811	0,0005553701967464553	0,19992942120611894	0,000467498583	-0,17757806309471658	0,0066256762903089984	1,6360809088254774
1	1	0	0	0	0	2	488880,61	0,200000003	2,34088945	0,00055536610089656384	0,19992794672854896	0,00046800921	-0,11371166416866795	0,0042427350770915053	1,6999473077515251
1	1	0	0	0	0	2	490030,63	0,200000003	2,34380388	0,00055535504063384397	0,19992396510598074	0,000468582555	-0,049845280207672499	0,0018597944222402666	1,7638136917125197
1	1	0	0	0	0	2	491180,65	0,200000003	2,3469851	0,00055535969409263789	0,19992564031423565	0,00046922249	0,014020901021061232	-0,00052313866839771034	1,8276798729412531
1	1	0	0	0	0	2	492330,67	0,200000003	2,35068035	0,0005553553723560439	0,19992408452832806	0,000469957624	0,077886690629643277	-0,002906057147161289	1,8915456625498362
1	1	0	0	0	0	2	493480,69	0,200000003	2,3550806	0,00055535079473588192	0,19992243660749072	0,000470833445	0,14175223212512794	-0,0052889663684916128	1,955411204045321
1	1	0	0	0	0	2	494269,99	0,200000003	2,35818529	0,00051536228131916781	0,19992086322053389	0,000471450447	0,1855850531839815	-0,0069244278560521434	1,999244025104175