Folder: thesis/Experimentelles/Rohdaten/Batteriemessungen/AlteZelle/Studenten_Batterietests/S vs Li GCPL 300µm/ZView-Export (part 2)

File: S vs Li GCPL 300µm_02_GCPL_C06_loop8.txt
EC-Lab ASCII FILE
Nb header lines : 3
mode	ox/red	error	control changes	Ns changes	counter inc.	Ns	time/s	control/V/mA	Ewe/V	dq/mA.h	<I>/mA	P/W	(Q-Qo)/mA.h	x	Capacity/mA.h
1	0	0	1	1	0	1	561766,56	-0,200000003	2,3427372	0	0	0	0	0	0
1	0	0	1	0	0	1	562906,58	-0,200000003	2,26566815	-0,0005558838133886457	-0,2001144150572569	0,000453392859	-0,063367444923114227	0,0023643245685172192	0,063367444923114227
1	0	0	1	0	0	1	564046,60	-0,200000003	2,24313402	-0,00055588455422388186	-0,20011468175293386	0,000448884064	-0,12673768008405368	0,0047287532445592109	0,12673768008405368
1	0	0	1	0	0	1	565186,62	-0,200000003	2,22008562	-0,00055586931328061562	-0,20010919510706838	0,000444259553	-0,19010793540037328	0,0070931826726255373	0,19010793540037328
1	0	0	1	0	0	1	566326,64	-0,200000003	2,18589401	-0,00055587149235357837	-0,20010997956792262	0,000437419192	-0,25347797684733981	0,0094576041209387482	0,25347797684733981
1	0	0	1	0	0	1	567466,66	-0,200000003	2,12053967	-0,00055587596284598106	-0,20011158891496717	0,000424344558	-0,31684772866941171	0,011822014762957738	0,31684772866941171
1	0	0	1	0	0	1	568606,68	-0,200000003	1,98550665	-0,00055586956440409018	-0,2001092855144807	0,000397318305	-0,38021791077580883	0,014186441459463421	0,38021791077580883
1	0	0	1	0	0	1	569746,71	-0,200000003	1,91329479	-0,00055585835629039347	-0,20010525067397552	0,000382860337	-0,44358654716707686	0,016550810483259405	0,44358654716707686
1	0	0	1	0	0	1	570886,73	-0,200000003	1,90879941	-0,00055586831715454662	-0,20010883651773542	0,000381967635	-0,50695489695224749	0,018915168813396547	0,50695489695224749
1	0	0	1	0	0	1	572026,75	-0,200000003	1,91171384	-0,00055586005595326419	-0,20010586253646035	0,000382545142	-0,57032349487535251	0,021279536401893648	0,57032349487535251
1	0	0	1	0	0	1	573166,77	-0,200000003	1,91527581	-0,00055585226288851763	-0,20010305709049152	0,00038325254	-0,63369145918261018	0,023643880349331578	0,63369145918261018
1	0	0	1	0	0	1	574306,79	-0,200000003	1,91868544	-0,00055585436523622931	-0,2001038139214559	0,000383936276	-0,69705900533670656	0,026008208694912848	0,69705900533670656
1	0	0	1	0	0	1	575446,81	-0,200000003	1,93150496	-0,00055585956203275258	-0,20010568472142656	0,000386505126	-0,76042728802730189	0,028372564521661174	0,76042728802730189
1	0	0	1	0	0	1	576586,83	-0,200000003	1,94864833	-0,00055586688478456608	-0,20010832087422522	0,000389940746	-0,82379601270188173	0,030736936839426221	0,82379601270188173
1	0	0	1	0	0	1	577726,86	-0,200000003	1,95984864	-0,00055586941530307142	-0,2001092318437809	0,000392183807	-0,88716500566112717	0,033101319167252845	0,88716500566112717
1	0	0	1	0	0	1	578866,88	-0,200000003	1,96828699	-0,00055586007261938515	-0,20010586853382173	0,000393865776	-0,95053336988113216	0,035465678035973075	0,95053336988113216
1	0	0	1	0	0	1	580006,90	-0,200000003	1,97628725	-0,00055586217572126118	-0,20010662564326864	0,000395468174	-1,0139011386809315	0,037830014688764877	1,0139011386809315
1	0	0	1	0	0	1	581146,92	-0,200000003	1,98421133	-0,00055586109169075885	-0,20010623539961587	0,000397053052	-1,0772691858513163	0,040194361727937485	1,0772691858513163
1	0	0	1	0	0	1	582286,94	-0,200000003	1,99375451	-0,00055586714934226534	-0,20010841610854954	0,000398967066	-1,1406373730556163	0,04255871399196375	1,1406373730556163
1	0	0	1	0	0	1	583426,96	-0,200000003	2,00213575	-0,00055586588534878368	-0,20010796108409974	0,000400643301	-1,20400592146672	0,044923079733101517	1,20400592146672
1	0	0	1	0	0	1	584566,98	-0,200000003	2,00929785	-0,00055586625922967987	-0,20010809567869494	0,000402076752	-1,267375151516952	0,047287470907111629	1,267375151516952
1	0	0	1	0	0	1	585707,00	-0,200000003	2,01415515	-0,00055586129719515642	-0,20010630937049178	0,000403045153	-1,3307442974220661	0,049651858941554253	1,3307442974220661
1	0	0	1	0	0	1	586847,03	-0,200000003	2,01638389	-0,00055586941176570125	-0,20010923057035158	0,000403497019	-1,3941128434607288	0,05201622459417305	1,3941128434607288
1	0	0	1	0	0	1	587987,05	-0,200000003	2,01609826	-0,00055586699690090291	-0,20010836123534858	0,000403438113	-1,4574817590717677	0,054380604036034099	1,4574817590717677
1	0	0	1	0	0	1	589127,07	-0,200000003	2,01293612	-0,00055586921579970253	-0,20010916002391674	0,000402806967	-1,5208511956334893	0,056745002915265542	1,5208511956334893
1	0	0	1	0	0	1	590267,09	-0,200000003	2,00470734	-0,00055587823396093306	-0,20011240650099722	0,000401166821	-1,5842205307012346	0,059109398007620275	1,5842205307012346
1	0	0	1	0	0	1	591407,11	-0,200000003	1,97609687	-0,00055586584610491987	-0,20010794695657408	0,000395432697	-1,647589648947119	0,061473785010059853	1,647589648947119
1	0	0	1	0	0	1	592547,13	-0,200000003	1,9009515	-0,00055586201404862931	-0,20010656744221411	0,000380392885	-1,7109583529010698	0,063838156554710387	1,7109583529010698
1	0	0	1	0	0	1	593687,15	-0,200000003	1,54147327	-0,00055586719970653453	-0,20010843424400506	0,000308461807	-1,7743271461322522	0,066202531430414438	1,7743271461322522
1	1	0	0	0	0	2	594811,66	0,200000003	2,27203012	0,00055536549254341254	0,19992782305681078	0,000454242021	-1,7190431904797235	0,064139812714949683	0,058868572804625677
1	1	0	0	0	0	2	595951,68	0,200000003	2,26202989	0,00055535293912970355	0,19992330390808157	0,000452232489	-1,6557321807880419	0,061777593820795174	0,12217958249630774
1	1	0	0	0	0	2	597091,71	0,200000003	2,26402998	0,00055535586213237709	0,19992435617393939	0,000452634733	-1,5924215216329309	0,05941538800563145	0,18549024165141824
1	1	0	0	0	0	2	598231,73	0,200000003	2,26881099	0,00055536331357475789	0,19992703864282486	0,000453596673	-1,5291104291153034	0,057053166021129542	0,24880133416904589
1	1	0	0	0	0	2	599371,75	0,200000003	2,27382064	0,00055535536973923443	0,19992417890875446	0,000454591733	-1,4657991696469837	0,054690937807472864	0,31211259363736525
1	1	0	0	0	0	2	600511,77	0,200000003	2,27953529	0,00055535401319381267	0,19992369056855498	0,000455733098	-1,4024886911109584	0,052328738731450054	0,37542307217339091
1	1	0	0	0	0	2	601651,79	0,200000003	2,28547835	0,0005553610120746825	0,19992621011835584	0,000456927024	-1,3391776206846826	0,049966517571206195	0,4387341425996663
1	1	0	0	0	0	2	602791,81	0,200000003	2,29134512	0,00055536406497408954	0,19992730913452256	0,00045810247	-1,2758665530499221	0,047604296515117523	0,50204521023442605
1	1	0	0	0	0	2	603931,83	0,200000003	2,29744053	0,00055537155335396531	0,19993000490763882	0,000459327304	-1,2125549131437736	0,045242054106813939	0,56535685014057504
1	1	0	0	0	0	2	605071,86	0,200000003	2,30332637	0,00055535962228394221	0,19992570980308429	0,000460494164	-1,1492430975399968	0,042879805142995616	0,62866866574435149
1	1	0	0	0	0	2	606211,88	0,200000003	2,30949807	0,00055535712523427277	0,19992481087742851	0,000461725955	-1,0859319489881056	0,040517581067780006	0,69197981429624294
1	1	0	0	0	0	2	607351,90	0,200000003	2,31568885	0,00055535658923784896	0,19992461792699405	0,000462963217	-1,022620981055461	0,038155363731711328	0,7552907822288873
1	1	0	0	0	0	2	608491,92	0,200000003	2,32138419	0,00055536186826311872	0,19992651834040506	0,00046410627	-0,95931012122351603	0,035793150429025094	0,81860164206083226
1	1	0	0	0	0	2	609631,94	0,200000003	2,32662249	0,00055536961865590675	0,19992930842476138	0,000465160032	-0,89599920467770086	0,033430935010268122	0,88191255860664742
1	1	0	0	0	0	2	610771,96	0,200000003	2,32999396	0,00055535608532528083	0,19992443652187594	0,000465822726	-0,83268804376234291	0,031068710473754944	0,94522371952200538
1	1	0	0	0	0	2	611911,98	0,200000003	2,33292747	0,00055535685932801824	0,19992471515762918	0,000466409867	-0,76937683846298458	0,02870648428121503	1,0085349248213634
1	1	0	0	0	0	2	613052,01	0,200000003	2,33498454	0,00055536504188097184	0,19992766081206893	0,000466828002	-0,7060657943491849	0,026344264102725037	1,0718459689351621
1	1	0	0	0	0	2	614192,03	0,200000003	2,33660364	0,00055536252299033939	0,19992675403777856	0,00046714957	-0,64275450644732851	0,023982034828174861	1,1351572568370187
1	1	0	0	0	0	2	615332,05	0,200000003	2,33734655	0,00055535562769489158	0,19992427177802941	0,000467292295	-0,57944393407069069	0,021619832250832634	1,1984678292136566
1	1	0	0	0	0	2	616472,07	0,200000003	2,33841324	0,00055536492467588851	0,19992761861903123	0,000467513397	-0,5161333198670777	0,019257628112869718	1,2617784434172696
1	1	0	0	0	0	2	617612,09	0,200000003	2,33953714	0,00055536432481639917	0,19992740268297978	0,000467737584	-0,45282236796013773	0,016895411374741629	1,3250893953242091
1	1	0	0	0	0	2	618752,11	0,200000003	2,34026098	0,00055535966799904902	0,1999257262602137	0,000467878388	-0,38951153423633075	0,014533199046185133	1,3884002290480155
1	1	0	0	0	0	2	619892,13	0,200000003	2,34138489	0,00055536291057119763	0,19992689356426749	0,000468105805	-0,32620078015041523	0,012170989689025438	1,4517109831339325
1	1	0	0	0	0	2	621032,16	0,200000003	2,34327054	0,00055535769284019866	0,19992501521637958	0,000468478393	-0,26289031493163267	0,0098087911098868608	1,5150214483527139
1	1	0	0	0	0	2	622172,18	0,200000003	2,34591818	0,00055535917425072858	0,1999255485141561	0,000469008985	-0,19957968849516742	0,0074465865154997837	1,5783320747891789
1	1	0	0	0	0	2	623312,20	0,200000003	2,34885168	0,00055535656257304883	0,19992460832784624	0,000469593244	-0,13626907311629979	0,0050843823336865402	1,6416426901680461
1	1	0	0	0	0	2	624452,22	0,200000003	2,35208988	0,00055535120591024563	0,19992267996544803	0,000470236118	-0,072958849325130214	0,002722192762536807	1,7049529139592166
1	1	0	0	0	0	2	625592,24	0,200000003	2,356071	0,00055535749397261274	0,19992494362539302	0,000471037347	-0,0096487253595381862	0,00036000691601358835	1,7682630379248086
1	1	0	0	0	0	2	626732,26	0,200000003	2,36069965	0,00055535234698239296	0,19992309074370742	0,000471958367	0,053661801810417101	-0,0020021939746065373	1,8315735650947638
1	1	0	0	0	0	2	627872,28	0,200000003	2,36584282	0,00055535750883983238	0,19992494897749158	0,000472991	0,11697262323476232	-0,0043644058442535802	1,8948843865191098
1	1	0	0	0	0	2	629012,31	0,200000003	2,37153816	0,0005553552986250983	0,19992415330581878	0,000474127766	0,18028341660479408	-0,0067266166671564698	1,9581951798891411
1	1	0	0	0	0	2	629751,60	0,200000003	2,37586212	0,00051537510281552864	0,19992593256716083	0,000474996457	0,22133979922801293	-0,0082584855037222886	1,999251562512361

File: S vs Li GCPL 300µm_04_OCV_C06.txt
EC-Lab ASCII FILE
Nb header lines : 48

Open Circuit Voltage

Run on channel : 6 (SN 5437)
Grouped channel(s) : 6
User :
CE vs. WE compliance from -10 V to 10 V
Electrode connection : standard
Ewe ctrl range : min = 0,00 V, max = 5,00 V
Acquisition started on : 01.23.2015 15:08:00
Saved on :
	File : S vs Li GCPL 300µm_04_OCV_C06.mpr
	Directory : C:\Hupfer\Studenten Batterietests\S vs Li GCPL 300µm\
	Host : 192.168.0.2
Device : VMP3 (SN 0324)
Address : 192.168.0.1
EC-Lab for windows v10.33 (software)
Internet server v10.33 (firmware)
Command interpretor v10.32 (firmware)
Electrode material : S vs Li
Initial state : charged
Electrolyte : LP30
Comments : 300µm
Mass of active material : 0,001 mg
 at x = 0,000
Molecular weight of active material (at x = 0) : 0,001 g/mol
Atomic weight of intercalated ion : 0,001 g/mol
Acquisition started at : xo = 0,000
Number of e- transfered per intercalated ion : 1
for DX = 1, DQ = 26,801 mA.h
Battery capacity : 0,000 A.h
Reference electrode : Li+/Li (-3,020 V)
Electrode surface area : 0,001 cm²
Characteristic mass : 0,001 g
Create one data file per loop
tR (h:m:s)          3:00:0,0000
dER/dt (mV/h)       0,0
dER (mV)            0,00
dtR (s)             60,0000
E range min (V)     0,000
E range max (V)     5,000

Number of loops : 1
Loop 0 from point number 0 to 180

mode	error	time/s	Ewe/V
3	0	764356,6604	2,36203313
3	0	764416,6605	2,3472898
3	0	764476,6606	2,3437469
3	0	764536,6607	2,34109902
3	0	764596,6609	2,33923244
3	0	764656,6610	2,33753705
3	0	764716,6611	2,33633709
3	0	764776,6613	2,33496547
3	0	764836,6614	2,33378458
3	0	764896,6615	2,33275604
3	0	764956,6616	2,33180356
3	0	765016,6618	2,33098459
3	0	765076,6619	2,33003211
3	0	765136,6620	2,32913685
3	0	765196,6621	2,32826066
3	0	765256,6623	2,3277843
3	0	765316,6624	2,32730818
3	0	765376,6625	2,32666063
3	0	765436,6626	2,32587957
3	0	765496,6628	2,3253653
3	0	765556,6629	2,32483196
3	0	765616,6630	2,32391763
3	0	765676,6632	2,32370806
3	0	765736,6633	2,32311749
3	0	765796,6634	2,32256508
3	0	765856,6635	2,32218409
3	0	765916,6637	2,32161283
3	0	765976,6638	2,32107949
3	0	766036,6639	2,32039356
3	0	766096,6640	2,32022214
3	0	766156,6642	2,31957459
3	0	766216,6643	2,3191936
3	0	766276,6644	2,31873655
3	0	766336,6645	2,31837463
3	0	766396,6647	2,31789827
3	0	766456,6648	2,31782222
3	0	766516,6649	2,31734586
3	0	766576,6651	2,31717443
3	0	766636,6652	2,31685066
3	0	766696,6653	2,31627917
3	0	766756,6654	2,31580305
3	0	766816,6656	2,3156507
3	0	766876,6657	2,31519341
3	0	766936,6658	2,31481242
3	0	766996,6659	2,31456494
3	0	767056,6661	2,3143363
3	0	767116,6662	2,3138411
3	0	767176,6663	2,31351733
3	0	767236,6664	2,31342196
3	0	767296,6666	2,31296492
3	0	767356,6667	2,31275535
3	0	767416,6668	2,3124125
3	0	767476,6670	2,31218386
3	0	767536,6671	2,3119173
3	0	767596,6672	2,31161237
3	0	767656,6673	2,3112886
3	0	767716,6675	2,3110981
3	0	767776,6676	2,31088853
3	0	767836,6677	2,3104887
3	0	767896,6678	2,31026006
3	0	767956,6680	2,31012678
3	0	768016,6681	2,3097837
3	0	768076,6682	2,30949807
3	0	768136,6683	2,30921245
3	0	768196,6685	2,3089838
3	0	768256,6686	2,30883145
3	0	768316,6687	2,30860281
3	0	768376,6689	2,30827904
3	0	768436,6690	2,30791712
3	0	768496,6691	2,30787897
3	0	768556,6692	2,30759335
3	0	768616,6694	2,30749798
3	0	768676,6695	2,30721235
3	0	768736,6696	2,30704093
3	0	768796,6697	2,30675507
3	0	768856,6699	2,30664086
3	0	768916,6700	2,30650759
3	0	768976,6701	2,30629802
3	0	769036,6702	2,3059361
3	0	769096,6704	2,30582166
3	0	769156,6705	2,30566931
3	0	769216,6706	2,30540276
3	0	769276,6708	2,30509782
3	0	769336,6709	2,30490756
3	0	769396,6710	2,30483127
3	0	769456,6711	2,30475497
3	0	769516,6713	2,30458355
3	0	769576,6714	2,30439305
3	0	769636,6715	2,30408835
3	0	769696,6716	2,3038218
3	0	769756,6718	2,30385971
3	0	769816,6719	2,30359316
3	0	769876,6720	2,30336452
3	0	769936,6721	2,30330729
3	0	769996,6723	2,30304074
3	0	770056,6724	2,30298352
3	0	770116,6725	2,30279303
3	0	770176,6727	2,30258346
3	0	770236,6728	2,30243111
3	0	770296,6729	2,30216455
3	0	770356,6730	2,30210733
3	0	770416,6732	2,30201221
3	0	770476,6733	2,30184078
3	0	770536,6734	2,30157399
3	0	770596,6735	2,3013835
3	0	770656,6737	2,30128837
3	0	770716,6738	2,30132627
3	0	770776,6739	2,30111694
3	0	770836,6740	2,30094552
3	0	770896,6742	2,30065966
3	0	770956,6743	2,30067873
3	0	771016,6744	2,30060244
3	0	771076,6746	2,30033588
3	0	771136,6747	2,30035496
3	0	771196,6748	2,29999304
3	0	771256,6749	2,30008817
3	0	771316,6751	2,29968834
3	0	771376,6752	2,29961205
3	0	771436,6753	2,29963112
3	0	771496,6754	2,29947877
3	0	771556,6756	2,29947877
3	0	771616,6757	2,29930735
3	0	771676,6758	2,29894543
3	0	771736,6759	2,29890728
3	0	771796,6761	2,29867864
3	0	771856,6762	2,29867864
3	0	771916,6763	2,29854536
3	0	771976,6765	2,29846907
3	0	772036,6766	2,29831672
3	0	772096,6767	2,29822159
3	0	772156,6768	2,29822159
3	0	772216,6770	2,29808807
3	0	772276,6771	2,29806924
3	0	772336,6772	2,29801202
3	0	772396,6773	2,2977643
3	0	772456,6775	2,29766917
3	0	772516,6776	2,2975738
3	0	772576,6777	2,2975359
3	0	772636,6778	2,29755473
3	0	772696,6780	2,29738331
3	0	772756,6781	2,2971549
3	0	772816,6782	2,29717398
3	0	772876,6784	2,29692626
3	0	772936,6785	2,29679298
3	0	772996,6786	2,29660249
3	0	773056,6787	2,29656434
3	0	773116,6789	2,29652619
3	0	773176,6790	2,29629755
3	0	773236,6791	2,29641199
3	0	773296,6792	2,2963357
3	0	773356,6794	2,29608822
3	0	773416,6795	2,29612613
3	0	773476,6796	2,29578328
3	0	773536,6797	2,2959168
3	0	773596,6799	2,2957263
3	0	773656,6800	2,29566908
3	0	773716,6801	2,29559278
3	0	773776,6803	2,29555488
3	0	773836,6804	2,29534531
3	0	773896,6805	2,29521179
3	0	773956,6806	2,29511666
3	0	774016,6808	2,29509759
3	0	774076,6809	2,29504037
3	0	774136,6810	2,29486895
3	0	774196,6811	2,29458332
3	0	774256,6813	2,29458332
3	0	774316,6814	2,29445004
3	0	774376,6815	2,29456425
3	0	774436,6816	2,29445004
3	0	774496,6818	2,29437375
3	0	774556,6819	2,29424047
3	0	774616,6820	2,29399276
3	0	774676,6822	2,2940309
3	0	774736,6823	2,29404998
3	0	774796,6824	2,29395461
3	0	774856,6825	2,29380226
3	0	774916,6827	2,29376435
3	0	774976,6828	2,29376435
3	0	775036,6829	2,29361176
3	0	775096,6830	2,29336429
3	0	775156,6472	2,29338336