Folder: thesis/Experimentelles/Rohdaten/Batterietests/AlteZelle/150511_LLTO_LTO_Tests/ECLab-Export

Note: README.md
# thesis

Zusammenfassung
---------------
Es konnten die Festkörperelektrolytkeramiken LATP, LAGP, LTO und LLTO hergestellt,
mit XRD und MAS-NMR charakterisiert und zu Elektrodensuspensionen weiterverarbeitet
werden. Aus den Daten der MAS-NMR konnten dabei gegenüber der XRD keine Mehrinfor-
mationen gewonnen werden. Die mit den Suspensionen gegossenen und gestanzten Elektro-
denproben wurden mittels REM und EDX untersucht und als Kathode in Testzellen verbaut.
Mit diesen wurden Ladekennlinien erstellt und eine zyklischer Voltametrie durchgeführt. Aus
den Ladekennlinien konnten die Kapazitäten und der Grad der Lithiuminsertation in die
Materialen bestimmt werden. Die zyklische Voltametrie lieferte nicht-reaktive Spannungsbe-
reiche der Materialien.

Für ein noch besseres Verständnis der Lithiumbewegung und -insertation wurde eine in-situ
NMR-Testzelle konzipiert, konstruiert, gebaut und getestet. Für den Test kam dabei eine
Lithium-Schwefel-Zelle zum Einsatz, für welche ein Di?usionskoe?zient sowie ein Spektrum
vor und nach einer 90 minütigen Ladezeit aufgenommen worden ist.

Abstract
--------
The all solid state electrolyte ceramics LATP, LAGP, LTO, and LLTO were successfully
synthesized and characterized by using XRD. MAS-NMR spectroscopy were not able to ge-
nerate additional information. All powders were processed to electrode slurries, casted on
aluminum foils and punched to electrode samples. Those samples were studied by SEM and
EDX and then build into battery test cells. The cells were analyzed by measuring the charge
curves as well as cyclic voltammetry. With the charge curves capacities and the amount of
lithium insertion were calculated. The cyclic voltammetry was able to detect non-reactive
voltage regions.

To be able to better understand lithium movement and insertion a novel in-situ NMR sample
cell was designed, constructed, built and tested. Therefore, a lithium-sulfur-cell was built into
the in-situ sample cell. With this setting a diffusion coeffcient as well as a NMR spectrum
before and after 90 minutes of charging were measured.

File: LLTO_LP30_LTO_02_CV_C01_loop0.mpt
EC-Lab ASCII FILE
Nb header lines : 3
mode	ox/red	error	control changes	counter inc.	time/s	control/V	Ewe/V	<I>/mA	cycle number	(Q-Qo)/C	P/W
2	1	0	0	0	600,05	0,270491809	0,271069825	-0,0044001461938023565	1	0	1,19274682E-006
2	1	0	0	0	607,17	0,341697156	0,3420434	0,014298112029791816	1	0,000102072074	4,89057493E-006
2	1	0	1	0	614,27	0,41270259	0,412956923	0,015067848735876966	1	0,000209499325	6,22237258E-006
2	1	0	0	0	621,37	0,483708024	0,484171182	0,015460359228503251	1	0,00032070512	7,48546017E-006
2	1	0	0	0	628,47	0,554713368	0,555405438	0,016200906335143427	1	0,000436818547	8,99807128E-006
2	1	0	1	0	635,57	0,625718832	0,626028299	0,017030497974095283	1	0,000559187669	1,06615735E-005
2	1	0	0	0	642,67	0,696724236	0,697262585	0,018225069783511517	1	0,000688852742	1,27076592E-005
2	1	0	1	0	649,77	0,767730176	0,767985284	0,01971152095578385	1	0,000826566014	1,51381582E-005
2	1	0	1	0	656,88	0,838735044	0,839069545	0,020667264747316893	1	0,000972749433	1,73412718E-005
2	1	0	1	0	663,94	0,909340441	0,909632206	0,021789745650797443	1	0,00112647959	1,98206544E-005
2	1	0	0	0	671,04	0,980345964	0,980565846	0,023223853029776282	1	0,001289865	2,27725177E-005
2	1	0	0	0	678,14	1,05135131	1,05193043	0,024590689097143014	1	0,00146280765	2,58676937E-005
2	1	0	1	0	685,24	1,12235665	1,12283397	0,025962822061652867	1	0,0016461151	2,91519391E-005
2	1	0	0	0	692,34	1,19336212	1,19378746	0,028022747428622042	1	0,00184064789	3,34532051E-005
2	1	0	1	0	699,44	1,2643677	1,26491153	0,029174641987386394	1	0,00204593339	3,69033405E-005
2	1	0	1	0	706,54	1,33537304	1,33566463	0,030688553253033382	1	0,00226218463	4,09896165E-005
2	1	0	0	0	713,64	1,40637839	1,40672863	0,032175342600870291	1	0,00249007437	4,52619752E-005
2	1	0	1	0	720,74	1,47738385	1,47747183	0,033952812625405728	1	0,00272980658	5,01643226E-005
2	1	0	1	0	727,84	1,5483892	1,54898667	0,035730806538291968	1	0,00298143458	5,53465434E-005
2	1	0	0	0	734,94	1,61939442	1,61976993	0,037423967170373882	1	0,00324450573	6,06182184E-005
2	1	0	1	0	742,04	1,6904	1,69070339	0,03888816519368743	1	0,00351910922	6,57483542E-005
2	1	0	0	0	749,14	1,76140547	1,7621181	0,040772464271867674	1	0,00380516401	7,18458978E-005
2	1	0	0	0	756,24	1,83241081	1,83300161	0,04242950800107792	1	0,00410368433	7,77733585E-005
2	1	0	1	0	763,34	1,90341616	1,90390515	0,044516644372682214	1	0,00441630231	8,47554693E-005
2	1	0	0	0	770,44	1,97442174	1,97492886	0,047171714608945427	1	0,00474499492	9,31607792E-005
2	1	0	0	0	777,54	2,04542708	2,04590249	0,049817095355440986	1	0,00509219849	0,000101920923
2	1	0	1	0	784,65	2,11643243	2,1167357	0,053092621208634285	1	0,00546110654	0,000112383044
2	1	0	0	0	791,75	2,18743801	2,18789983	0,056586040824186054	1	0,005855144	0,000123804595
2	1	0	1	0	798,85	2,25844336	2,25901413	0,060899904385830042	1	0,00627715467	0,000137573748
2	1	0	1	0	805,95	2,3294487	2,33001781	0,065531955352829184	1	0,00672912272	0,000152690627
2	1	0	0	0	813,05	2,40045428	2,40091133	0,070285609030785626	1	0,00721360184	0,00016874951
2	1	0	1	0	820,15	2,47145963	2,47190499	0,075838529582445862	1	0,00773561792	0,000187465645
2	1	0	1	0	827,25	2,54246449	2,54300833	0,083069642771008038	1	0,00830224529	0,000211246792
2	1	0	0	0	834,35	2,61347032	2,61391258	0,091526034113485594	1	0,00892427564	0,000239241053
2	1	0	1	0	841,49	2,68487573	2,68537736	0,10242433341530477	1	0,00961931888	0,000275047991
2	1	0	0	0	848,59	2,75588155	2,75651145	0,11448233295232058	1	0,0103924936	0,000315571873
2	1	0	0	0	855,69	2,82688689	2,82722449	0,12859737613083166	1	0,0112592801	0,000363573665
2	1	0	1	0	862,79	2,89789224	2,89810801	0,1410733457887545	1	0,0122261876	0,000408845779
2	1	0	0	0	869,89	2,96889758	2,9692018	0,15497190326762621	1	0,0132760005	0,000460142852
2	1	0	1	0	876,99	3,03990293	3,04030585	0,17622807773485715	1	0,0144545287	0,000535787258
2	1	0	1	0	884,09	3,11090851	3,11130953	0,20264977434029286	1	0,0157995541	0,000630506198
2	1	0	0	0	891,19	3,18191385	3,18245387	0,2352982114534825	1	0,0173564665	0,000748825725
2	1	0	1	0	898,29	3,25291896	3,25335693	0,27404553458715242	1	0,0191647839	0,000891567965
2	1	0	1	0	905,39	3,32392454	3,32430077	0,3232656726613632	1	0,0212821979	0,00107463228
2	1	0	0	0	912,50	3,39492989	3,39541459	0,38634792777399251	1	0,0237969998	0,00131181139
2	1	0	1	0	919,60	3,46593499	3,46639848	0,4670847935291623	1	0,0268187691	0,00161910197
2	1	0	1	0	926,70	3,53694034	3,53740168	0,56785470160106221	1	0,0304839034	0,00200873008
2	1	0	0	0	933,80	3,60794616	3,60841584	0,69342809977630989	1	0,0349562541	0,00250217691
2	1	0	1	0	940,90	3,67895174	3,67942953	0,83442314465840538	1	0,0403707065	0,00307020126
2	1	0	0	0	948,04	3,75035739	3,75098491	1,026696822916465	1	0,0469832458	0,00385112432
2	1	0	0	0	955,14	3,8213625	3,82213926	1,2874448591222406	1	0,055156406	0,0049207937
2	1	0	1	0	962,24	3,89236808	3,89301252	1,6376602730403328	1	0,0654941872	0,00637543201
2	1	0	0	0	969,34	3,96337342	3,96368527	2,0191116450975251	1	0,0785082579	0,0080031231
2	1	0	1	0	976,44	4,03437901	4,03500938	2,2810158164550813	1	0,0938763544	0,00920392014
2	1	0	1	0	983,54	4,10538435	4,10605335	2,426267315944031	1	0,110635415	0,00996238273
2	1	0	0	0	990,64	4,17638969	4,17683649	2,5334694149593472	1	0,128246337	0,0105818873
2	0	0	1	1	997,68	4,15318775	4,15368032	1,7263997476547885	1	0,144154906	0,00717091281
2	0	0	0	1	1004,78	4,08218241	4,08277512	0,95746247216911232	1	0,153417006	0,00390910404
2	0	0	0	1	1011,88	4,01117706	4,01156235	0,51918644427011174	1	0,158514068	0,0020827488
2	0	0	1	1	1019,02	3,93977165	3,94030833	0,2562434977541368	1	0,161202133	0,00100967835
2	0	0	0	1	1026,12	3,86876607	3,86920404	0,085091826738789683	1	0,162370235	0,000329237635
2	0	0	1	1	1033,35	3,79656053	3,79703736	-0,022989784038897344	1	0,162551895	8,72930686E-005
2	0	0	1	1	1040,45	3,72555494	3,72618389	-0,078753518716742746	1	0,16216588	0,000293450081
2	0	0	0	1	1047,59	3,65414977	3,65470886	-0,11074927208634744	1	0,161477044	0,000404756342
2	0	0	1	1	1054,69	3,58314419	3,58360505	-0,13198154109219784	1	0,16060783	0,000472969725
2	0	0	1	1	1061,79	3,51213884	3,51251125	-0,14691491409515322	1	0,159612238	0,000516040309
2	0	0	0	1	1068,89	3,4411335	3,44152784	-0,15870021112884138	1	0,158521593	0,000546171214
2	0	0	1	1	1075,99	3,37012815	3,3705337	-0,17005366591426307	1	0,157349691	0,000573171594
2	0	0	0	1	1083,09	3,29912257	3,29932928	-0,1804604384815319	1	0,156100586	0,000595398422
2	0	0	0	1	1090,19	3,22811747	3,22863674	-0,19082863372750669	1	0,154778555	0,000616116333
2	0	0	1	1	1097,29	3,15711188	3,15746236	-0,19928721392837722	1	0,15338926	0,000629241869
2	0	0	0	1	1104,39	3,08610654	3,08662939	-0,20722996552164342	1	0,151940852	0,000639642123
2	0	0	0	1	1111,49	3,01510048	3,01555395	-0,21282636627740192	1	0,150445133	0,000641789404
2	0	0	1	1	1118,59	2,94409561	2,94432092	-0,21643119173434931	1	0,148917496	0,000637242862
2	0	0	0	1	1125,69	2,87309027	2,87358809	-0,21706404117867373	1	0,147375166	0,000623752654
2	0	0	1	1	1132,79	2,80208492	2,80234361	-0,21433659448909293	1	0,145838484	0,000600644795
2	0	0	1	1	1139,89	2,73107934	2,73135972	-0,20797538020027238	1	0,14433369	0,000568055548
2	0	0	0	1	1146,99	2,66007423	2,66062665	-0,1989406230859463	1	0,142883182	0,000529306708
2	0	0	1	1	1154,09	2,58906865	2,58957291	-0,18838979501742893	1	0,141503096	0,000487849116
2	0	0	1	1	1161,19	2,51806307	2,51841879	-0,17648935290829555	1	0,140203521	0,000444474106
2	0	0	0	1	1168,30	2,44705772	2,4476254	-0,16522579907905222	1	0,13898778	0,00040441085
2	0	0	1	1	1175,40	2,37605214	2,37659192	-0,15492752233209674	1	0,137848675	0,000368199486
2	0	0	0	1	1182,50	2,3050468	2,30546761	-0,14787454907006339	1	0,136772633	0,000340919971
2	0	0	0	1	1189,60	2,23404145	2,23453403	-0,14425049962786397	1	0,135735467	0,000322332664
2	0	0	1	1	1196,70	2,16303611	2,16348004	-0,14545503538102022	1	0,134705767	0,000314689067
2	0	0	0	1	1203,80	2,09203076	2,09247637	-0,15142063579211574	1	0,133651316	0,000316844089
2	0	0	0	1	1210,90	2,02102447	2,02128196	-0,16122068126922294	1	0,132541209	0,000325872446
2	0	0	1	1	1218,00	1,95001972	1,95046914	-0,17379841410244467	1	0,131349981	0,000338988437
2	0	0	0	1	1225,10	1,87901437	1,87940514	-0,18645429560759379	1	0,130066484	0,000350423157
2	0	0	1	1	1232,20	1,80800903	1,80841136	-0,19878811327119683	1	0,128694296	0,000359490688
2	0	0	1	1	1239,30	1,73700356	1,73740768	-0,21228844587070262	1	0,127232462	0,000368831563
2	0	0	0	1	1246,40	1,66599798	1,66635394	-0,22686238097958355	1	0,125669569	0,00037803303
2	0	0	1	1	1253,50	1,59499264	1,59546041	-0,23917667707428349	1	0,124009468	0,00038159691
2	0	0	1	1	1260,60	1,52398717	1,52442575	-0,24936015998095184	1	0,122270308	0,000380131038
2	0	0	0	1	1267,70	1,45298195	1,45334256	-0,25720404779228189	1	0,120467447	0,000373805582
2	0	0	1	1	1274,80	1,38197649	1,3822087	-0,2629972312133768	1	0,118615545	0,000363517058
2	0	0	0	1	1281,90	1,31097114	1,31128502	-0,26508120439636419	1	0,116736084	0,000347597001
2	0	0	0	1	1289,00	1,23996568	1,24056208	-0,26306340307928598	1	0,114855044	0,00032634649
2	0	0	1	1	1296,11	1,16896021	1,16914713	-0,2596228116502367	1	0,112997353	0,000303537265
2	0	0	0	1	1303,21	1,09795475	1,09837401	-0,26099164279488195	1	0,111146957	0,000286666444
2	0	0	0	1	1310,31	1,02694964	1,02731085	-0,26538582943033971	1	0,109274864	0,000272633741
2	0	0	1	1	1317,41	0,955944002	0,956537008	-0,27600517201547658	1	0,107354447	0,00026400917
2	0	0	0	1	1324,51	0,884938657	0,885362923	-0,29297968411507693	1	0,105333783	0,00025939336
2	0	0	1	1	1331,61	0,813933134	0,814228773	-0,31310859733882125	1	0,103177324	0,000254942017
2	0	0	1	1	1338,71	0,74292779	0,743285239	-0,33122742439930611	1	0,100886375	0,000246196461
2	0	0	0	1	1345,81	0,671922326	0,672080994	-0,34807521190183987	1	0,0984702408	0,000233934741
2	0	0	1	1	1352,91	0,600916982	0,601217568	-0,36480875747899245	1	0,0959349349	0,000219329435
2	0	0	0	1	1360,01	0,529911458	0,530334115	-0,37861913054560634	1	0,0932904258	0,000200794646
2	0	0	0	1	1367,11	0,458906114	0,459200084	-0,38497114709268179	1	0,0905703679	0,000176778776
2	0	0	1	1	1374,21	0,38790071	0,388336688	-0,39381557594363859	1	0,0878113136	0,000152933033
2	0	0	0	1	1381,31	0,316895276	0,317212641	-0,4156416887417431	1	0,0849446654	0,000131846798
2	0	0	0	1	1385,94	0,270591825	0,270588636	-0,45434749440142982	1	0,082944192	0,000122941274

File: LLTO_LP30_LTO_02_CV_C01_loop8.mpt
EC-Lab ASCII FILE
Nb header lines : 3
mode	ox/red	error	control changes	counter inc.	time/s	control/V	Ewe/V	<I>/mA	cycle number	(Q-Qo)/C	P/W
2	1	0	1	0	6887,29	0,273292035	0,273605406	-0,69924926757812506	9	0	0,000191318381
2	1	0	0	0	6894,37	0,344097376	0,344579041	-0,072532038107359526	9	-0,00182846258	2,49930199E-005
2	1	0	1	0	6901,59	0,41630289	0,416575223	0,012564680645785571	9	-0,00195906102	5,23413473E-006
2	1	0	0	0	6908,69	0,487308323	0,487619072	0,034924499554714784	9	-0,00177746627	1,70298517E-005
2	1	0	0	0	6915,79	0,558313787	0,558652878	0,049940517288632691	9	-0,00147155242	2,78994139E-005
2	1	0	1	0	6922,89	0,629319191	0,629857123	0,06420919760906441	9	-0,0010642932	4,0442621E-005
2	1	0	0	0	6929,99	0,700324655	0,700550139	0,079385906748939277	9	-0,000551034871	5,56138075E-005
2	1	0	1	0	6937,10	0,771330059	0,771644056	0,090277083198694989	9	5,76151579E-005	6,96617717E-005
2	1	0	1	0	6944,20	0,842335522	0,842938542	0,095003820296066406	9	0,000721217424	8,00823836E-005
2	1	0	0	0	6951,25	0,912840843	0,913220525	0,095831708963184051	9	0,0013986557	8,75154801E-005
2	1	0	1	0	6958,35	0,983846247	0,984284461	0,095152397834074918	9	0,00207932317	9,36570286E-005
2	1	0	1	0	6965,45	1,05485153	1,05553865	0,09705571213271447	9	0,00276405807	0,000102446058
2	1	0	0	0	6972,59	1,12625694	1,12682319	0,099293556258392307	9	0,00346793607	0,000111886278
2	1	0	1	0	6979,69	1,19726253	1,19786692	0,10164824372623115	9	0,00418423209	0,00012176107
2	1	0	0	0	6986,79	1,26826799	1,26883078	0,10388498210037778	9	0,00491843931	0,000131812456
2	1	0	0	0	6993,89	1,33927333	1,33970416	0,10450444587816765	9	0,00566322543	0,000140005039
2	1	0	1	0	7000,99	1,41027868	1,41079807	0,10301478525313245	9	0,00640372885	0,000145333062
2	1	0	0	0	7008,09	1,48128426	1,48190212	0,1015213523448133	9	0,00713226153	0,000150444714
2	1	0	0	0	7015,19	1,55228913	1,55271482	0,10368447374792034	9	0,00786024053	0,000160992422
2	1	0	1	0	7022,29	1,62329495	1,62374914	0,11048848441957214	9	0,00862148404	0,000179405586
2	1	0	0	0	7029,39	1,69430029	1,6948632	0,11981906493504811	9	0,00944087934	0,000203076925
2	1	0	1	0	7036,49	1,76530588	1,76581681	0,12910525143767382	9	0,0103282686	0,000227976227
2	1	0	1	0	7043,59	1,83631134	1,83686066	0,13918086537159957	9	0,0112858498	0,000255655847
2	1	0	0	0	7050,69	1,90731668	1,90800476	0,14893882434504624	9	0,012312741	0,000284176
2	1	0	1	0	7057,79	1,97832227	1,97882819	0,15819456094565475	9	0,0134067284	0,000313039869
2	1	0	0	0	7064,90	2,04932737	2,0499804	0,16670027223830509	9	0,0145639041	0,000341732288
2	1	0	0	0	7072,00	2,12033296	2,12068534	0,17476627804959709	9	0,0157797057	0,000370624271
2	1	0	1	0	7079,10	2,1913383	2,19181943	0,18191556970123158	9	0,0170502588	0,000398726086
2	1	0	0	0	7086,20	2,26234388	2,26281309	0,18886068882420659	9	0,0183698423	0,000427356426
2	1	0	0	0	7093,30	2,33334947	2,33396602	0,19544674150188566	9	0,0197360367	0,000456166046
2	1	0	1	0	7100,40	2,40435481	2,40489054	0,20287468587048442	9	0,0211536344	0,000487891404
2	1	0	0	0	7107,50	2,47536039	2,47592449	0,21079821349121542	9	0,0226257816	0,000521920447
2	1	0	1	0	7114,60	2,5463655	2,5470283	0,21859932931450432	9	0,0241547469	0,000556778687
2	1	0	1	0	7121,70	2,61737108	2,61794209	0,22740424734850694	9	0,0257420018	0,000595331134
2	1	0	0	0	7128,80	2,68837643	2,68903589	0,23591763464113091	9	0,0273903813	0,000634390977
2	1	0	1	0	7135,90	2,75938177	2,76000977	0,24468440213240595	9	0,0291006062	0,000675331336
2	1	0	0	0	7143,00	2,83038759	2,8309536	0,25642066588248502	9	0,0308797136	0,000725915015
2	1	0	0	0	7150,10	2,90139294	2,90204692	0,27238299449284842	9	0,0327576771	0,000790468242
2	1	0	1	0	7157,20	2,97239804	2,97299075	0,29322791611775802	9	0,0347654484	0,000871763856
2	1	0	0	0	7164,30	3,04340363	3,04414487	0,32041536721711418	9	0,036944218	0,00097539078
2	1	0	0	0	7171,40	3,11440897	3,11488819	0,3527708666709559	9	0,0393329971	0,00109884178
2	1	0	1	0	7178,50	3,18541408	3,18610215	0,39212615694850682	9	0,0419780761	0,00124935398
2	1	0	0	0	7185,60	3,2564199	3,25717616	0,4395117438398295	9	0,0449284725	0,00143156713
2	1	0	0	0	7192,71	3,32742476	3,32816935	0,49853445997515424	9	0,0482537635	0,00165920716
2	1	0	1	0	7199,81	3,39843059	3,39924383	0,5754558977981401	9	0,0520606786	0,00195611501
2	1	0	0	0	7206,91	3,46943617	3,47017741	0,66389504742498138	9	0,0564583987	0,00230383361
2	1	0	1	0	7214,01	3,54044127	3,54116106	0,76353592829157696	9	0,0615230687	0,00270380359
2	1	0	1	0	7221,11	3,61144686	3,61217475	0,8692652185757943	9	0,0673265532	0,00313993776
2	1	0	0	0	7228,21	3,68245244	3,68308854	0,96002025405565926	9	0,0738346279	0,0035358395
2	1	0	1	0	7235,35	3,75385761	3,75468373	1,0401205637802704	9	0,0809808671	0,0039053238
2	1	0	0	0	7242,45	3,8248632	3,82558727	1,1151399556547368	9	0,0886354744	0,00426606508
2	1	0	0	0	7249,55	3,89586854	3,8968215	1,1902501452714267	9	0,0968214348	0,00463819224
2	1	0	1	0	7256,65	3,96687412	3,96766472	1,2737234514206648	9	0,105565742	0,0050537074
2	1	0	0	0	7263,75	4,03787947	4,0386982	1,3722980376332963	9	0,114955567	0,00554229738
2	1	0	0	0	7270,85	4,10888386	4,10978937	1,4863017523829248	9	0,125096053	0,00610838737
2	1	0	1	0	7277,95	4,17989016	4,18074608	1,6438406283656662	9	0,136171117	0,00687248027
2	0	0	0	1	7284,99	4,14968777	4,15059233	1,0068041253834928	9	0,146123171	0,00417883368
2	0	0	1	1	7292,13	4,07828236	4,07918739	0,49006247272094106	9	0,151257128	0,00199905667
2	0	0	1	1	7299,23	4,00727749	4,00796366	0,22710905435744787	9	0,153696746	0,000910244824
2	0	0	0	1	7306,33	3,93627167	3,93678904	0,088232454863221171	9	0,154763907	0,000347352558
2	0	0	1	1	7313,47	3,86486602	3,86569524	0,007854507248945687	9	0,155080006	3,03631314E-005
2	0	0	0	1	7320,66	3,79306078	3,79356885	-0,042726658789130624	9	0,154941604	0,000162086522
2	0	0	0	1	7327,76	3,7220552	3,72275543	-0,077794787881430234	9	0,154504001	0,000289610965
2	0	0	1	1	7334,90	3,65064979	3,65133047	-0,10628089510525296	9	0,153839558	0,000388066663
2	0	0	0	1	7342,00	3,57964444	3,58021665	-0,12955920363310702	9	0,152997464	0,00046385001
2	0	0	1	1	7349,10	3,50863886	3,50929308	-0,14969545214747405	9	0,152000219	0,000525325187
2	0	0	1	1	7356,20	3,43763375	3,43831921	-0,1652507875502729	9	0,150876448	0,000568184943
2	0	0	0	1	7363,30	3,36662817	3,36738586	-0,1778096462755152	9	0,149653822	0,000598753686
2	0	0	1	1	7370,40	3,29562259	3,29626203	-0,18879793941353773	9	0,148348376	0,000622327498
2	0	0	1	1	7377,50	3,22461724	3,22532797	-0,19902944122441158	9	0,146968916	0,000641935214
2	0	0	0	1	7384,60	3,15361166	3,15431452	-0,20916295493952973	9	0,145517036	0,000659765734
2	0	0	1	1	7391,70	3,08260655	3,08312035	-0,22036281577311456	9	0,143988296	0,000679405057
2	0	0	0	1	7398,80	3,01160121	3,01205635	-0,23261103934297856	9	0,142376065	0,000700637582
2	0	0	0	1	7405,90	2,94059563	2,94103265	-0,24450755491852694	9	0,140677705	0,000719104719
2	0	0	1	1	7413,00	2,86959052	2,8700788	-0,25470801567037958	9	0,138900816	0,000731032051
2	0	0	0	1	7420,10	2,79858494	2,79939604	-0,26080476663385978	9	0,137064323	0,000730095839
2	0	0	0	1	7427,20	2,72757936	2,72822189	-0,26280265774888288	9	0,13519986	0,000716983981
2	0	0	1	1	7434,30	2,65657401	2,65714788	-0,26131146339078714	9	0,133336276	0,00069434318
2	0	0	0	1	7441,40	2,58556843	2,58622408	-0,25995493028313011	9	0,131482542	0,000672301685
2	0	0	1	1	7448,51	2,51456308	2,51518059	-0,25956803009224493	9	0,129635662	0,000652860443
2	0	0	1	1	7455,61	2,44355774	2,4440465	-0,25971632318881798	9	0,127790183	0,000634758791
2	0	0	0	1	7462,71	2,37255216	2,37306261	-0,25984701731552784	9	0,125942484	0,000616633217
2	0	0	1	1	7469,81	2,30154705	2,30198884	-0,25917947424265242	9	0,124095403	0,000596628233
2	0	0	1	1	7476,91	2,23054147	2,23149633	-0,25794320468169917	9	0,122255303	0,000575599319
2	0	0	0	1	7484,01	2,15953588	2,15996122	-0,25505316831792512	9	0,120430529	0,000550904952
2	0	0	1	1	7491,11	2,08853054	2,08928823	-0,25070721019680298	9	0,118631169	0,000523799623
2	0	0	0	1	7498,21	2,0175252	2,0183146	-0,24698566847170422	9	0,116860539	0,000498494774
2	0	0	0	1	7505,31	1,94651985	1,9469099	-0,24472614385498125	9	0,115112208	0,00047645974
2	0	0	1	1	7512,41	1,87551427	1,8759563	-0,24240553022051814	9	0,113380186	0,00045474217
2	0	0	0	1	7519,51	1,80450892	1,80497253	-0,24009727376202682	9	0,111663423	0,000433368987
2	0	0	0	1	7526,61	1,73350346	1,73396873	-0,23745208419184614	9	0,109965496	0,00041173448
2	0	0	1	1	7533,71	1,66249812	1,66302526	-0,2359774171685185	9	0,108283304	0,000392436399
2	0	0	0	1	7540,81	1,59149253	1,5920316	-0,23708259073706995	9	0,106602989	0,000377442979
2	0	0	1	1	7547,91	1,52048719	1,52108788	-0,24016954990414253	9	0,104906172	0,000365318992
2	0	0	1	1	7555,01	1,44948184	1,44988382	-0,24567178551418099	9	0,103177197	0,000356195553
2	0	0	0	1	7562,11	1,37847638	1,37888992	-0,2518058432421344	9	0,1014072	0,000347212539
2	0	0	1	1	7569,21	1,30747092	1,30795646	-0,25694107000405619	9	0,0995972306	0,000336067722
2	0	0	1	1	7576,31	1,23646557	1,23699272	-0,26057876076252384	9	0,097756438	0,000322334032
2	0	0	0	1	7583,42	1,16546011	1,16591883	-0,26501791939760323	9	0,0958879292	0,000308989373
2	0	0	1	1	7590,52	1,09445465	1,09494519	-0,27156748327736934	9	0,0939810798	0,000297351507
2	0	0	0	1	7597,62	1,02344918	1,02374089	-0,2844227358388407	9	0,0920088142	0,00029117518
2	0	0	0	1	7604,72	0,952443898	0,952807307	-0,30583285416166016	9	0,0899168923	0,000291399774
2	0	0	1	1	7611,82	0,881438375	0,881893814	-0,33539959827127622	9	0,0876392648	0,000295786827
2	0	0	0	1	7618,92	0,81043303	0,810910165	-0,36319202200199258	9	0,0851526558	0,000294516096
2	0	0	0	1	7626,02	0,739427805	0,739816785	-0,38516201769124781	9	0,0824876353	0,000284949318
2	0	0	1	1	7633,12	0,668422222	0,668692172	-0,40306587688004128	9	0,0796832591	0,000269526994
2	0	0	0	1	7640,22	0,597416699	0,597708404	-0,42307884463419578	9	0,0767505467	0,00025287777
2	0	0	1	1	7647,32	0,526411355	0,526534259	-0,45165755723913568	9	0,073647365	0,000237813176
2	0	0	1	1	7654,42	0,455405861	0,45586133	-0,49021734514584115	9	0,0703056902	0,000223471128
2	0	0	0	1	7661,52	0,384400457	0,384847581	-0,53975652003039974	9	0,066655241	0,000207723991
2	0	0	1	1	7668,62	0,313395023	0,313583165	-0,61398428166285069	9	0,0625758544	0,000192535139
2	0	0	0	1	7672,69	0,272691995	0,273364812	-0,67673620084921638	9	0,0599525757	0,000184995864