Folder: thesis/Experimentelles/Rohdaten/Batterietests/AlteZelle/150511_LLTO_LTO_Tests/ECLab-Export (part 2)

File: LLTO_LP30_LTO_05_GCPL_C01_loop1.mpt
EC-Lab ASCII FILE
Nb header lines : 3
mode	ox/red	error	control changes	Ns changes	counter inc.	Ns	time/s	control/V/mA	Ewe/V	dq/mA.h	<I>/mA	P/W	(Q-Qo)/mA.h	x	Capacity/mA.h
1	0	0	1	1	0	1	48843,55	-0,0100000007	2,8181715	0	0	0	0	0	0
1	0	0	1	0	0	1	49513,55	-0,0100000007	1,97398555	-2,775510005735689E-005	-0,0099918360020372352	1,97237405E-005	-0,0018595639947953584	6,9382832856196813E-005	0,0018595639947953584
1	0	0	1	0	0	1	50183,55	-0,0100000007	1,47329795	-2,7755551084462141E-005	-0,0099919983717948224	1,47211904E-005	-0,0037191986849710739	0,00013876830345208566	0,0037191986849710739
1	0	0	1	0	0	1	50853,55	-0,0100000007	1,04404449	-2,7755046542371728E-005	-0,0099918167366426125	1,04319015E-005	-0,0055788113913649555	0,00020815295380351683	0,0055788113913649555
1	1	0	0	0	0	2	51505,32	0,0100000007	1,547418	2,7795900539184611E-005	0,010006524175467856	1,54842764E-005	-0,0050546708888692134	0,0001885965669410001	0,0011674483387622878
1	1	0	0	0	0	2	52175,32	0,0100000007	2,10869384	2,7795837067067626E-005	0,010006501325505782	2,11006482E-005	-0,003192311134232896	0,00011910942052619802	0,0030298080933986022
1	1	0	0	0	0	2	52845,32	0,0100000007	2,42580938	2,7797039756499645E-005	0,010006934293700506	2,42749156E-005	-0,0013299443568436382	4,9622012083041555E-005	0,0048921748707878592
1	1	0	0	0	0	2	53515,32	0,0100000007	2,58972001	2,779647347387961E-005	0,010006730431957672	2,59146309E-005	0,0005324348550139143	-1,9865860306845302E-005	0,0067545540826454144
1	1	0	0	0	0	2	54185,32	0,0100000007	2,67478776	2,779706178450336E-005	0,010006942223781827	2,67664473E-005	0,0023948276192894976	-8,9354238355670323E-005	0,008616946846921001
1	1	0	0	0	0	2	54855,32	0,0100000007	2,71925974	2,7796960884084304E-005	0,010006905899631035	2,72113757E-005	0,0042572325574872973	-0,00015884307062990125	0,010479351785118795
1	1	0	0	0	0	2	55525,32	0,0100000007	2,74394941	2,7796362149632643E-005	0,010006690355228838	2,74578524E-005	0,0061196311326569498	-0,00022833166549099677	0,012341750360288451
1	1	0	0	0	0	2	56195,32	0,0100000007	2,7590344	2,7797525924837424E-005	0,010007109314301779	2,76099581E-005	0,0079820429861818586	-0,0002978207557853799	0,014204162213813363
1	1	0	0	0	0	2	56865,32	0,0100000007	2,76862001	2,7797379792460963E-005	0,010007056706646352	2,7705737E-005	0,0098444529820345229	-0,00036730977676751392	0,016066572209666029
1	1	0	0	0	0	2	57535,32	0,0100000007	2,77536058	2,7797515965687731E-005	0,010007105729007896	2,7773327E-005	0,011706865532433187	-0,00043679889306319386	0,017928984760064688
1	1	0	0	0	0	2	58205,32	0,0100000007	2,78022981	2,7797406589457146E-005	0,010007066353564958	2,7821945E-005	0,013569286752899733	-0,00050628833285076339	0,019791405980531213
1	1	0	0	0	0	2	58875,32	0,0100000007	2,78378153	2,7797642353715171E-005	0,010007151228697688	2,78577227E-005	0,01543170054547104	-0,00057577749549357472	0,021653819773102525
1	1	0	0	0	0	2	59545,32	0,0100000007	2,78637838	2,7797166108981603E-005	0,010006979780593925	2,78832322E-005	0,01729408778232407	-0,00064526566730683251	0,023516207009955552
1	1	0	0	0	0	2	60215,32	0,0100000007	2,78849792	2,7797010329500256E-005	0,010006923699980746	2,79042852E-005	0,019156482103877216	-0,00071475410345977715	0,025378601331508698
1	1	0	0	0	0	2	60885,32	0,0100000007	2,79010201	2,779702537511993E-005	0,010006929116403818	2,79203523E-005	0,021018859152489117	-0,00078424189513606029	0,027240978380120598
1	1	0	0	0	0	2	61555,32	0,0100000007	2,79140043	2,779719074624073E-005	0,010006988650007194	2,79335127E-005	0,022881237579508246	-0,00085372973824257037	0,029103356807139725
1	1	0	0	0	0	2	62225,32	0,0100000007	2,79233599	2,7795102510446061E-005	0,010006236885122514	2,79407759E-005	0,024743573256796771	-0,00092321598629915405	0,030965692484428256
1	1	0	0	0	0	2	62895,32	0,0100000007	2,7931571	2,7795793066732586E-005	0,0100064854853852	2,79496853E-005	0,026605911374083587	-0,00099270232539535437	0,032828030601715091
1	1	0	0	0	0	2	63565,32	0,0100000007	2,79399729	2,7796427811754662E-005	0,01000671399359272	2,79587312E-005	0,028468250400788272	-0,0010621886984231582	0,03469036962841975
1	1	0	0	0	0	2	64235,32	0,0100000007	2,79493284	2,7796693413052707E-005	0,01000680961005984	2,79683609E-005	0,030330623321399162	-0,0011316763360781734	0,036552742549030624
1	1	0	0	0	0	2	64905,32	0,0100000007	2,79617405	2,7795921648852528E-005	0,010006531774948291	2,79800042E-005	0,032193014820620429	-0,0012011646669261213	0,03841513404825191
1	1	0	0	0	0	2	65575,32	0,0100000007	2,79726243	2,7797523563520778E-005	0,010006910698441098	2,7991955E-005	0,034055386452487347	-0,0012706522564963661	0,040277505680118829
1	1	0	0	0	0	2	66245,34	0,0100000007	2,7982173	2,7797370651167712E-005	0,010006855683146646	2,80013574E-005	0,035917796966565952	-0,0013401412968142067	0,042139916194197434
1	1	0	0	0	0	2	66915,35	0,0100000007	2,79892373	2,7797364080117808E-005	0,010006853283570405	2,80084187E-005	0,037780186425001568	-0,0014096295515176978	0,04400230565263305
1	1	0	0	0	0	2	67585,36	0,0100000007	2,79976392	2,7796436339409814E-005	0,010006519300371434	2,80158911E-005	0,03964259622034103	-0,0014791185650184147	0,045864715447972512
1	1	0	0	0	0	2	68255,38	0,0100000007	2,80052781	2,7798315874300899E-005	0,010007195956779373	2,80254299E-005	0,041505029045862579	-0,0015486084378061894	0,047727148273494061
1	1	0	0	0	0	2	68925,39	0,0100000007	2,80131054	2,779973797660528E-005	0,010007707876871197	2,80346976E-005	0,043367579622124179	-0,0016181027040323933	0,049589698849755661
1	1	0	0	0	0	2	69595,40	0,0100000007	2,80215073	2,7798807733226566E-005	0,010007372985272131	2,80421682E-005	0,045230098102270285	-0,0016875957727093741	0,051452217329901766
1	1	0	0	0	0	2	70265,42	0,0100000007	2,80236077	2,7798640843636045E-005	0,010007312943369936	2,80441018E-005	0,047092648668698144	-0,0017570900385686678	0,053314767896329626
1	1	0	0	0	0	2	70935,43	0,0100000007	2,80262804	2,7800087545118813E-005	0,010007833726155651	2,80482345E-005	0,048955223979876147	-0,0018265852276878589	0,055177343207507629
1	1	0	0	0	0	2	71605,44	0,0100000007	2,80293369	2,7799409923919789E-005	0,010007589769636885	2,80506101E-005	0,050817797278081798	-0,0018960803417003453	0,05703991650571328
1	1	0	0	0	0	2	72275,46	0,0100000007	2,80322003	2,7797626210531843E-005	0,010006947682787046	2,80516761E-005	0,052680327297223642	-0,0019655738409127718	0,058902446524855117
1	1	0	0	0	0	2	72945,47	0,0100000007	2,80064225	2,7799332846266528E-005	0,010007562047292435	2,80276017E-005	0,054542827442461011	-0,0020350662254896563	0,060764946670092493
1	1	0	0	0	0	2	73615,48	0,0100000007	2,80123425	2,779920402655585E-005	0,010007515648050901	2,80333952E-005	0,056405389526206086	-0,0021045609210755402	0,062627508753837555
1	1	0	0	0	0	2	74285,50	0,0100000007	2,80203629	2,7798724810903274E-005	0,01000734317110529	2,80409386E-005	0,058267912378119846	-0,0021740541528690502	0,064490031605751309
1	1	0	0	0	0	2	74955,51	0,0100000007	2,80281901	2,7798299368574387E-005	0,010007190009651146	2,80483418E-005	0,060130449256603469	-0,0022435479080127408	0,066352568484234982
1	1	0	0	0	0	2	75625,52	0,0100000007	2,80364013	2,7799375615600086E-005	0,010007577418769406	2,8057646E-005	0,061992966781955046	-0,0023130409410650547	0,068215086009586573
1	1	0	0	0	0	2	76295,54	0,0100000007	2,80442309	2,7799453007833414E-005	0,010007605311693661	2,80655586E-005	0,063855520314622272	-0,002382535317598727	0,070077639542253786
1	1	0	0	0	0	2	76965,55	0,0100000007	2,80537772	2,779940756596625E-005	0,010007588957954323	2,80750664E-005	0,065718096186211712	-0,0024520305276276227	0,071940215413843226
1	1	0	0	0	0	2	77635,56	0,0100000007	2,80627537	2,780046234988711E-005	0,010007968635380218	2,80851164E-005	0,06758067752682976	-0,0025215259417133286	0,073802796754461274
1	1	0	0	0	0	2	78305,57	0,0100000007	2,80700088	2,7799062792315251E-005	0,010007464829893202	2,80909626E-005	0,069443272367767104	-0,0025910218595140989	0,075665391595398618
1	1	0	0	0	0	2	78975,59	0,0100000007	2,80765009	2,7800020005398739E-005	0,010007809431793107	2,80984277E-005	0,071305861709887846	-0,0026605175721466282	0,077527980937519347
1	1	0	0	0	0	2	79645,60	0,0100000007	2,80841398	2,779920512323992E-005	0,010007516042732864	2,81052471E-005	0,07316843033701431	-0,0027300125118748698	0,079390549564645824
1	1	0	0	0	0	2	80315,61	0,0100000007	2,80908227	2,779949802801841E-005	0,010007621504193758	2,8112232E-005	0,075031035544089293	-0,0027995088164501728	0,081253154771720806
1	1	0	0	0	0	2	80985,63	0,0100000007	2,80997968	2,7799874678926746E-005	0,010007757115413552	2,81215944E-005	0,076893629784405555	-0,0028690047118409629	0,083115749012037069
1	1	0	0	0	0	2	81655,64	0,0100000007	2,81070518	2,7799684992473987E-005	0,010007688792257243	2,8128663E-005	0,078756228009094963	-0,0029385007558940717	0,084978347236726464
1	1	0	0	0	0	2	82325,65	0,0100000007	2,81141186	2,779958762958025E-005	0,010007653753128403	2,8135637E-005	0,080618809169640602	-0,0030079961632610349	0,086840928397272115
1	1	0	0	0	0	2	82995,67	0,0100000007	2,81198478	2,779969435919904E-005	0,010007692201594376	2,81414777E-005	0,082481383709660979	-0,0030774913236072973	0,08870350293729248
1	1	0	0	0	0	2	83665,68	0,0100000007	2,81194639	2,7799670012564294E-005	0,010007683399640029	2,81410685E-005	0,084343941720079872	-0,0031469858672119059	0,090566060947711386
1	1	0	0	0	0	2	84335,69	0,0100000007	2,81232834	2,7797761244337181E-005	0,010006996259863454	2,81429584E-005	0,086206463010647462	-0,0032164790407494912	0,092428582238278976
1	1	0	0	0	0	2	85005,71	0,0100000007	2,81225204	2,7797727249769702E-005	0,010006984055960891	2,81421617E-005	0,088068894435140339	-0,0032859688612630022	0,09429101366277184
1	1	0	0	0	0	2	85675,72	0,0100000007	2,81192732	2,7796632724710637E-005	0,010006590002691437	2,81378034E-005	0,089931291908051507	-0,0033554574149973517	0,096153411135683021
1	1	0	0	0	0	2	86345,73	0,0100000007	2,81188917	2,7796855812116214E-005	0,010006670307444547	2,81376488E-005	0,09179367882981737	-0,0034249455750542835	0,098015798057448883
1	1	0	0	0	0	2	87015,75	0,0100000007	2,81190825	2,779673387762159E-005	0,010006626449287434	2,81377161E-005	0,09365606579283753	-0,0034944337366504691	0,099878185020469043
1	1	0	0	0	0	2	87085,32	0,0100000007	2,81183195	2,6598825440276416E-005	0,010006666602507485	2,81370649E-005	0,093849444432808794	-0,0035016489537081434	0,1000715636604403

File: LLTO_LP30_LTO_05_GCPL_C01_loop2.mpt
EC-Lab ASCII FILE
Nb header lines : 3
mode	ox/red	error	control changes	Ns changes	counter inc.	Ns	time/s	control/V/mA	Ewe/V	dq/mA.h	<I>/mA	P/W	(Q-Qo)/mA.h	x	Capacity/mA.h
1	0	0	1	1	0	1	87085,37	-0,0100000007	2,81095362	0	0	0	0	0	0
1	0	0	1	0	0	1	87755,38	-0,0100000007	1,98584342	-2,7757117257815683E-005	-0,009992364747874601	1,98432717E-005	-0,0018596194759537562	6,938490293281184E-005	0,0018596194759537562
1	0	0	1	0	0	1	88425,39	-0,0100000007	1,51786554	-2,7756954163054211E-005	-0,009992306009445897	1,51669774E-005	-0,003719307392772503	0,00013877235948631621	0,003719307392772503
1	0	0	1	0	0	1	89095,41	-0,0100000007	1,10780239	-2,7756669527747565E-005	-0,009992203531012119	1,10693873E-005	-0,005579005795903305	0,00020816020729822234	0,005579005795903305
1	1	0	0	0	0	2	89747,93	0,0100000007	1,3711338	2,7796641978279997E-005	0,010006593345559544	1,37203788E-005	-0,0058902824409388928	0,00021977435744040048	0,00075048497860826957
1	1	0	0	0	0	2	90417,94	0,0100000007	1,97596502	2,7795486434776746E-005	0,010006177341345965	1,97718564E-005	-0,0040279743151410765	0,00015028913736697862	0,0026127931044060842
1	1	0	0	0	0	2	91087,96	0,0100000007	2,33088851	2,779512206045911E-005	0,010006046206575446	2,33229784E-005	-0,0021656661364485914	8,0803915319985498E-005	0,0044751012830985696
1	1	0	0	0	0	2	91757,97	0,0100000007	2,52178025	2,7795657915373645E-005	0,010006239097020259	2,52335358E-005	-0,00030335066740433037	1,1318421260165678E-005	0,0063374167521428301
1	1	0	0	0	0	2	92427,98	0,0100000007	2,62344146	2,7795484668730448E-005	0,010006176705596424	2,62506182E-005	0,0015589203243801904	-5,8165413293292941E-005	0,0081996877439273459
1	1	0	0	0	0	2	93098,00	0,0100000007	2,68011522	2,7795470742560509E-005	0,010006171729651419	2,68176937E-005	0,003421196790028871	-0,00012764945208398304	0,010061964209576029
1	1	0	0	0	0	2	93768,01	0,0100000007	2,71165991	2,779542579341473E-005	0,010006155542221502	2,71332901E-005	0,0052834843710024947	-0,00019713390560239149	0,01192425179054965
1	1	0	0	0	0	2	94438,02	0,0100000007	2,73018217	2,7795044172917386E-005	0,010006018130252573	2,73182523E-005	0,0071457810299041498	-0,00026661869783050019	0,013786548449451302
1	1	0	0	0	0	2	95108,04	0,0100000007	2,74217367	2,7794437662180925E-005	0,010005799824220272	2,74376416E-005	0,0090080312739874048	-0,00033610175825932902	0,015648798693534554
1	1	0	0	0	0	2	95778,05	0,0100000007	2,7497735	2,7794296397620605E-005	0,010005748973827371	2,75135426E-005	0,010870229869837571	-0,00040558289162313946	0,01751099728938472
1	1	0	0	0	0	2	96448,06	0,0100000007	2,75534916	2,7793731910538758E-005	0,010005545725104379	2,75687726E-005	0,012732440598075494	-0,00047506447766264934	0,01937320801762265
1	1	0	0	0	0	2	97118,08	0,0100000007	2,75981736	2,779380871096833E-005	0,010005573398803613	2,76135561E-005	0,014594638796674822	-0,00054454559620449702	0,021235406216221971
1	1	0	0	0	0	2	97788,09	0,0100000007	2,76283431	2,7793379294427322E-005	0,010005418823202085	2,76433148E-005	0,016456827367213405	-0,00061402635551045299	0,023097594786760563
1	1	0	0	0	0	2	98458,10	0,0100000007	2,76480126	2,7794448581524192E-005	0,010005803721559755	2,76640585E-005	0,018319005089603686	-0,00068350671005741056	0,024959772509150842
1	1	0	0	0	0	2	99128,12	0,0100000007	2,76749349	2,7794224121970019E-005	0,010005722936354109	2,76907722E-005	0,020181210477174214	-0,00075298809682943936	0,02682197789672137
1	1	0	0	0	0	2	99798,13	0,0100000007	2,76932669	2,779419358700721E-005	0,010005711962970904	2,77090858E-005	0,022043414746288842	-0,00082246944187037453	0,028684182165835997
1	1	0	0	0	0	2	100468,14	0,0100000007	2,77178979	2,779410802795448E-005	0,010005681124814304	2,77336439E-005	0,023905624640473632	-0,00089195099679024064	0,030546392060020787
1	1	0	0	0	0	2	101138,16	0,0100000007	2,77381396	2,7794300816642742E-005	0,010005750538916392	2,77540912E-005	0,025767809038272902	-0,00096143160040568269	0,03240857645782007
1	1	0	0	0	0	2	101808,17	0,0100000007	2,77534151	2,7794759803399859E-005	0,010005915796611222	2,77698327E-005	0,02763000853675335	-0,0010309127674478426	0,034270775956300506
1	1	0	0	0	0	2	102478,18	0,0100000007	2,77677369	2,7794180018361661E-005	0,010005707040848648	2,77835843E-005	0,029492224331152051	-0,0011003945425126227	0,036132991750699219
1	1	0	0	0	0	2	103148,20	0,0100000007	2,77786207	2,7794461691545114E-005	0,010005808445733232	2,77947565E-005	0,031354405308374157	-0,0011698750185017315	0,037995172727921312
1	1	0	0	0	0	2	103818,21	0,0100000007	2,77853036	2,7794013619785094E-005	0,010005647175701798	2,78009938E-005	0,033216601302990944	-0,0012393560548100275	0,039857368722538106
1	1	0	0	0	0	2	104488,22	0,0100000007	2,77835846	2,7794700113849507E-005	0,010005894275483981	2,77999607E-005	0,035078815379297114	-0,001308837765770465	0,041719582798844275
1	1	0	0	0	0	2	105158,24	0,0100000007	2,777843	2,7794720890155683E-005	0,010005901750729515	2,77948238E-005	0,036941034916465958	-0,0013783196804830314	0,043581802336013114
1	1	0	0	0	0	2	105828,25	0,0100000007	2,77772832	2,7794190618209539E-005	0,010005710893875427	2,77931467E-005	0,038803267436648006	-0,0014478020796092758	0,045444034856195162
1	1	0	0	0	0	2	106498,26	0,0100000007	2,77673554	2,7794815363310691E-005	0,010005935771691872	2,77838371E-005	0,040665481758858016	-0,0015172837997447165	0,047306249178405171
1	1	0	0	0	0	2	107168,28	0,0100000007	2,77791929	2,7795293054698656E-005	0,010006107725893822	2,7796159E-005	0,04252772276320279	-0,00158676651542648	0,049168490182749952
1	1	0	0	0	0	2	107838,29	0,0100000007	2,77853036	2,7794561357237395E-005	0,010005844357288006	2,78015432E-005	0,044389987336454483	-0,0016562501104958486	0,051030754756001638
1	1	0	0	0	0	2	108508,30	0,0100000007	2,7788167	2,7794965783651504E-005	0,010005989929399226	2,78048119E-005	0,04625222974074041	-0,0017257328784112986	0,052892997160287571
1	1	0	0	0	0	2	109178,32	0,0100000007	2,77893138	2,7794261050565789E-005	0,010005736211865562	2,78052539E-005	0,048114458757655597	-0,0017952151468259466	0,054755226177202758
1	1	0	0	0	0	2	109848,33	0,0100000007	2,77883601	2,779493252663977E-005	0,010005977975646909	2,7804972E-005	0,04997668686246759	-0,0018646973812087981	0,056617454282014752
1	1	0	0	0	0	2	110518,34	0,0100000007	2,77862597	2,7794478620505997E-005	0,010005814561587626	2,78024163E-005	0,051838945118485818	-0,0019341807405736928	0,058479712538032973
1	1	0	0	0	0	2	111188,36	0,0100000007	2,77874041	2,779463989308311E-005	0,010005872592476194	2,78037223E-005	0,053701209958746144	-0,002003664345605513	0,060341977378293299
1	1	0	0	0	0	2	111858,37	0,0100000007	2,77879763	2,7795117861384323E-005	0,010006044694880154	2,78047737E-005	0,055563480943044352	-0,002073148179879647	0,062204248362591514
1	1	0	0	0	0	2	112528,38	0,0100000007	2,77877855	2,7795015510119914E-005	0,010006007844435536	2,78044809E-005	0,057425758160104365	-0,0021426322467065043	0,06406652557965152
1	1	0	0	0	0	2	113198,39	0,0100000007	2,77895045	2,7795291034142589E-005	0,010006106998624502	2,78064763E-005	0,059288036820102157	-0,0022121163673713101	0,065928804239649293
1	1	0	0	0	0	2	113868,41	0,0100000007	2,77906513	2,7795166556257757E-005	0,010006062218572784	2,78074986E-005	0,061150299891213888	-0,0022815999063938173	0,067791067310760986
1	1	0	0	0	0	2	114538,42	0,0100000007	2,77895045	2,7794916151608858E-005	0,010005972080737715	2,78060998E-005	0,063012618367390387	-0,0023510855126537843	0,069653385786937408
1	1	0	0	0	0	2	115208,43	0,0100000007	2,77914143	2,7795000622462893E-005	0,010006002452486197	2,78080952E-005	0,064874890874482163	-0,0024205694037453936	0,071515658294029171
1	1	0	0	0	0	2	115878,45	0,0100000007	2,77919865	2,7795793141083174E-005	0,010006287778245514	2,78094612E-005	0,066737158947373709	-0,002490053129391031	0,07337792636692073
1	1	0	0	0	0	2	116548,46	0,0100000007	2,77946615	2,7795678660066595E-005	0,010006246578372554	2,78120242E-005	0,068599455878440077	-0,0025595379317739712	0,075240223297987085
1	1	0	0	0	0	2	117218,47	0,0100000007	2,77961874	2,7795202219186147E-005	0,010006075025872131	2,78130738E-005	0,070461748766501888	-0,0026290225833069757	0,077102516186048909
1	1	0	0	0	0	2	117888,49	0,0100000007	2,77984786	2,7795377664578458E-005	0,010006138202204707	2,78155421E-005	0,072324048710742144	-0,0026985074981154845	0,078964816130289165
1	1	0	0	0	0	2	118558,50	0,0100000007	2,77975249	2,7796228978731152E-005	0,010006444689191371	2,78154403E-005	0,074186359887827251	-0,0027679928320365376	0,080827127307374259
1	1	0	0	0	0	2	119228,51	0,0100000007	2,77958059	2,7795647148819021E-005	0,010006235197257643	2,78131374E-005	0,076048656427986675	-0,0028374776198342141	0,082689423847533696
1	1	0	0	0	0	2	119898,53	0,0100000007	2,77959967	2,7795730758872298E-005	0,010006265306183214	2,78134121E-005	0,077910982011313549	-0,0029069634912715168	0,08455174943086057
1	1	0	0	0	0	2	120568,54	0,0100000007	2,7796762	2,7796488640467738E-005	0,010006538165540181	2,78149364E-005	0,079773309437212301	-0,0029764494314576538	0,086414076856759309
1	1	0	0	0	0	2	121238,55	0,0100000007	2,77963781	2,7796336909807805E-005	0,010006483506305701	2,78143998E-005	0,08163566593447031	-0,0030459364563352922	0,088276433354017331
1	1	0	0	0	0	2	121908,57	0,0100000007	2,77977157	2,7796550987391837E-005	0,010006560575624946	2,78159532E-005	0,083498041085255168	-0,0031154241772010963	0,090138808504802189
1	1	0	0	0	0	2	122578,58	0,0100000007	2,77977157	2,7796733885072173E-005	0,01000662645196959	2,78161351E-005	0,08536038541558176	-0,0031849107481141645	0,092001152835128768
1	1	0	0	0	0	2	123248,59	0,0100000007	2,77979064	2,779636470026647E-005	0,010006493516730488	2,78159569E-005	0,087222732967956595	-0,0032543974392461843	0,093863500387503616
1	1	0	0	0	0	2	123918,61	0,0100000007	2,77961874	2,7795892092606259E-005	0,010006323375394672	2,78137632E-005	0,089085082426585498	-0,0033238842015031066	0,095725849846132518
1	1	0	0	0	0	2	124588,62	0,0100000007	2,77843499	2,7795680897051677E-005	0,010006247383773194	2,78017087E-005	0,090947421344253056	-0,0033933705704625888	0,097588188763800077
1	1	0	0	0	0	2	125258,63	0,0100000007	2,77824402	2,7796391765793994E-005	0,01000650326665119	2,78005082E-005	0,092809773672183386	-0,0034628574397770054	0,099450541091730406
1	1	0	0	0	0	2	125477,92	0,0100000007	2,77799582	2,5794513225193238E-005	0,010006278933205558	2,77974013E-005	0,093419281492540237	-0,0034855989960464998	0,10006004891208726