Folder: thesis/Experimentelles/Rohdaten/Batterietests/AlteZelle/150511_LLTO_LTO_Tests/ZView-Export (part 3)

File: LLTO_LP30_LTO_05_GCPL_C01_loop3.txt
EC-Lab ASCII FILE
Nb header lines : 3
mode	ox/red	error	control changes	Ns changes	counter inc.	Ns	time/s	control/V/mA	Ewe/V	dq/mA.h	<I>/mA	P/W	(Q-Qo)/mA.h	x	Capacity/mA.h
1	0	0	1	1	0	1	125477,97	-0,0100000007	2,77698374	0	0	0	0	0	0
1	0	0	1	0	0	1	126157,98	-0,0100000007	1,95911062	-2,7756565681917386E-005	-0,0099921661636535334	1,95757584E-005	-0,0018873678353213581	7,0420231528883034E-005	0,0018873678353213581
1	0	0	1	0	0	1	126837,99	-0,0100000007	1,51817095	-2,7756696660951197E-005	-0,0099922132988886861	1,51698878E-005	-0,0037748247732870861	0,00014084378759722726	0,0037748247732870861
1	0	0	1	0	0	1	127518,01	-0,0100000007	1,15328646	-2,7756281210109594E-005	-0,0099920637394545536	1,15237117E-005	-0,0056622708985027814	0,00021126694022732992	0,0056622708985027814
1	1	0	0	0	0	2	128187,92	0,0100000007	1,19779027	2,7795338562017104E-005	0,010006124145013706	1,19852384E-005	-0,0067439702481163302	0,00025162659732165478	0,00038914320431339245
1	1	0	0	0	0	2	128867,93	0,0100000007	1,84791458	2,7797000468967274E-005	0,010006722420158851	1,8491568E-005	-0,0048538279520534419	0,00018110284693220314	0,0022792855003762784
1	1	0	0	0	0	2	129547,94	0,0100000007	2,23010564	2,7797727665139571E-005	0,010006984205724077	2,23166317E-005	-0,0029636495310418336	0,00011057774867234422	0,004169463921387888
1	1	0	0	0	0	2	130227,96	0,0100000007	2,43867922	2,7797315158932986E-005	0,010006835689183381	2,44034618E-005	-0,0010734401616086672	4,00514956852664E-005	0,0060596732908210509
1	1	0	0	0	0	2	130907,97	0,0100000007	2,54899049	2,779681554964433E-005	0,01000665581324115	2,55068699E-005	0,00081677381884618099	-3,0474929345229971E-005	0,0079498872712759014
1	1	0	0	0	0	2	131587,97	0,0100000007	2,61015153	2,7796957704911213E-005	0,010006903208066019	2,61195346E-005	0,0027069478392870147	-0,00010099986341387664	0,0098400612917167398
1	1	0	0	0	0	2	132267,97	0,0100000007	2,64351034	2,7796748053023798E-005	0,010006827733398358	2,64531518E-005	0,0045971356504479405	-0,00017152531203283178	0,011730249102877661
1	1	0	0	0	0	2	132947,97	0,0100000007	2,66262436	2,7796497508469555E-005	0,010006737537372944	2,66441839E-005	0,0064873268036170842	-0,00024205088534660691	0,013620440256046813
1	1	0	0	0	0	2	133627,97	0,0100000007	2,67459679	2,7797106978949158E-005	0,010006956946711274	2,67645755E-005	0,0083775223370340928	-0,00031257662209331917	0,015510635789463824
1	1	0	0	0	0	2	134307,97	0,0100000007	2,68223476	2,7795932494517827E-005	0,010006534132382147	2,68398744E-005	0,010267734221791491	-0,00038310296893052608	0,017400847674221226
1	1	0	0	0	0	2	134987,97	0,0100000007	2,68777227	2,779565413855016E-005	0,010006433924249467	2,68950153E-005	0,012157884761031253	-0,00045362702688398989	0,019290998213460979
1	1	0	0	0	0	2	135667,97	0,0100000007	2,69126678	2,7794780436282355E-005	0,010006119391482269	2,69291359E-005	0,014047969062184814	-0,00052414861340539962	0,021181082514614522
1	1	0	0	0	0	2	136347,97	0,0100000007	2,69332886	2,7793845317636925E-005	0,010005782748822587	2,69488628E-005	0,015938004497754333	-0,00059466837668616819	0,023071117950184045
1	1	0	0	0	0	2	137027,97	0,0100000007	2,6944747	2,7793750032937776E-005	0,010005748446336259	2,69602351E-005	0,017827987229805907	-0,00066518617352782157	0,024961100682235619
1	1	0	0	0	0	2	137707,97	0,0100000007	2,69500923	2,7792887329382618E-005	0,010005437873104995	2,6964748E-005	0,019717938096849158	-0,00073570278144317158	0,02685105154927887
1	1	0	0	0	0	2	138387,97	0,0100000007	2,69552493	2,7793452302821811E-005	0,010005641263511282	2,6970456E-005	0,021607876276284982	-0,0008062189159668297	0,028740989728714694
1	1	0	0	0	0	2	139067,97	0,0100000007	2,6959641	2,7793229589549206E-005	0,010005561086745688	2,69746342E-005	0,023497813637290413	-0,0008767350199537495	0,030630927089720128
1	1	0	0	0	0	2	139747,97	0,0100000007	2,69634581	2,7794087268929514E-005	0,01000586985127429	2,69792854E-005	0,025387785286660842	-0,00094725240328566848	0,032520898739090566
1	1	0	0	0	0	2	140427,97	0,0100000007	2,69688058	2,7793528504721405E-005	0,010005668696190843	2,6984093E-005	0,027277777421055011	-0,0010177705509413658	0,034410890873484742
1	1	0	0	0	0	2	141107,97	0,0100000007	2,69741511	2,7794916336321168E-005	0,010006168315488586	2,69907905E-005	0,029167782905692922	-0,0010882891967126066	0,036300896358122669
1	1	0	0	0	0	2	141787,97	0,0100000007	2,69789267	2,7794345447120979E-005	0,010005962795408675	2,69950142E-005	0,031057821345510394	-0,0011588090720859054	0,038190934797940141
1	1	0	0	0	0	2	142467,97	0,0100000007	2,69726253	2,7794809490545757E-005	0,010006129851015458	2,69891589E-005	0,03294787026783031	-0,0012293293385754646	0,040080983720260051
1	1	0	0	0	0	2	143147,97	0,0100000007	2,69724345	2,7794925418061517E-005	0,010006171584914602	2,69890807E-005	0,03483790434419703	-0,0012998490511425493	0,041971017796626771
1	1	0	0	0	0	2	143827,97	0,0100000007	2,69709063	2,7794450237674432E-005	0,010006000520002016	2,69870907E-005	0,036727914857915789	-0,0013703678845555584	0,04386102831034553
1	1	0	0	0	0	2	144507,97	0,0100000007	2,69621229	2,7794186926860778E-005	0,010005905728123933	2,69780467E-005	0,038617935443524122	-0,001440887093764309	0,045751048895953862
1	1	0	0	0	0	2	145187,97	0,0100000007	2,69550562	2,7794457478190048E-005	0,010006003126587229	2,69712382E-005	0,040507971261066963	-0,0015114068712970157	0,047641084713496704
1	1	0	0	0	0	2	145867,97	0,0100000007	2,6956203	2,7794366231809059E-005	0,010005970277895213	2,69722968E-005	0,042397975915436006	-0,001581925486089809	0,049531089367865754
1	1	0	0	0	0	2	146547,97	0,0100000007	2,69556308	2,7794810648334941E-005	0,010006130267819498	2,6972155E-005	0,044288020078589997	-0,0016524455750084883	0,051421133531019744
1	1	0	0	0	0	2	147227,98	0,0100000007	2,69523835	2,779587077597777E-005	0,010006511913711203	2,6969934E-005	0,046178138609261811	-0,0017229684386792464	0,053311252061691552
1	1	0	0	0	0	2	147907,98	0,0100000007	2,69523835	2,7795215820893645E-005	0,010006276129917808	2,69692991E-005	0,04806818145175257	-0,0017934884783222048	0,05520129490418231
1	1	0	0	0	0	2	148587,98	0,0100000007	2,69493294	2,7796323451937901E-005	0,010006674877031352	2,69673183E-005	0,049958257948389952	-0,0018640097736466227	0,057091371400819693
1	1	0	0	0	0	2	149267,98	0,0100000007	2,69504738	2,7795400158502163E-005	0,010006342491446493	2,69675675E-005	0,051848363178568224	-0,0019345321410580835	0,058981476630997965
1	1	0	0	0	0	2	149947,98	0,0100000007	2,69470382	2,7795461983885616E-005	0,010006364748581054	2,69641896E-005	0,053738450986746432	-0,0020050538584312982	0,060871564439176179
1	1	0	0	0	0	2	150627,98	0,0100000007	2,69464636	2,7795133221687546E-005	0,010006246394208266	2,69632947E-005	0,055628515711244998	-0,0020755747145213888	0,062761629163674752
1	1	0	0	0	0	2	151307,98	0,0100000007	2,69443631	2,7795630272736566E-005	0,010006425332557917	2,69616758E-005	0,057518586154450688	-0,0021460957839841312	0,064651699606880422
1	1	0	0	0	0	2	151987,98	0,0100000007	2,69458914	2,779650977238392E-005	0,010006741952381424	2,69640586E-005	0,059408753488968256	-0,002216620468591992	0,066541866941397952
1	1	0	0	0	0	2	152667,98	0,0100000007	2,69514298	2,7796679276507347E-005	0,010006802973856312	2,69697648E-005	0,061298958303132262	-0,0022871465516158528	0,068432071755561933
1	1	0	0	0	0	2	153347,98	0,0100000007	2,69533396	2,7796596677818643E-005	0,01000677323833303	2,69715965E-005	0,063189126107839539	-0,0023576712537671232	0,070322239560269197
1	1	0	0	0	0	2	154027,98	0,0100000007	2,69525743	2,7797037216524285E-005	0,010006931832242248	2,69712582E-005	0,065079261368897766	-0,0024281947416710925	0,072212374821327437
1	1	0	0	0	0	2	154707,98	0,0100000007	2,69495201	2,7796952471602707E-005	0,010006901324075253	2,69681186E-005	0,066969454288804826	-0,0024987203809042342	0,074102567741234483
1	1	0	0	0	0	2	155387,98	0,0100000007	2,69409275	2,7797606377707171E-005	0,010007136730236029	2,69601551E-005	0,068859661009857779	-0,0025692465350766861	0,07599277446228745
1	1	0	0	0	0	2	156067,98	0,0100000007	2,69359612	2,7797599633327789E-005	0,01000713430225983	2,69551783E-005	0,070749888588524864	-0,0026397734674747635	0,077883002040954522
1	1	0	0	0	0	2	156747,98	0,0100000007	2,69334793	2,7795701953220282E-005	0,010006451137528018	2,69508546E-005	0,072640085127376026	-0,0027102992417355757	0,079773198579805683
1	1	0	0	0	0	2	157427,98	0,0100000007	2,69279432	2,7794472750741987E-005	0,010006008624705067	2,69441225E-005	0,074530149371755162	-0,0027808200799117648	0,081663262824184819
1	1	0	0	0	0	2	158107,98	0,0100000007	2,6918776	2,7794710527846797E-005	0,010006094224449405	2,69351804E-005	0,076420160409380774	-0,0028513389328724435	0,083553273861810445
1	1	0	0	0	0	2	158787,98	0,0100000007	2,69185853	2,7797185477645446E-005	0,010006985206237515	2,69373886E-005	0,078310292990887962	-0,0029218623207987603	0,085443406443317619
1	1	0	0	0	0	2	159467,98	0,0100000007	2,69174409	2,779621794571479E-005	0,010006636894796976	2,69353059E-005	0,080200509100979136	-0,0029923888252888512	0,087333622553408794
1	1	0	0	0	0	2	160147,98	0,0100000007	2,69153404	2,7794938666487318E-005	0,010006176354347144	2,69319644E-005	0,08209057640700503	-0,0030629097776991974	0,089223689859434688
1	1	0	0	0	0	2	160827,98	0,0100000007	2,69122839	2,7794984504632234E-005	0,010006192856076733	2,69289503E-005	0,083980596245575731	-0,0031334289590349696	0,091113709698005389
1	1	0	0	0	0	2	161507,98	0,0100000007	2,69078922	2,779399499374752E-005	0,010005836632213968	2,6923597E-005	0,085870589944542093	-0,0032039471650669594	0,09300370339697175
1	1	0	0	0	0	2	162187,98	0,0100000007	2,69044566	2,7794035709514797E-005	0,010005851289887896	2,69201992E-005	0,087760571972848384	-0,0032744649356509299	0,094893685425278042
1	1	0	0	0	0	2	162867,98	0,0100000007	2,68977737	2,7793922262473238E-005	0,010005810448959325	2,69134034E-005	0,089650548145440026	-0,0033449824877503142	0,096783661597869696
1	1	0	0	0	0	2	163547,98	0,0100000007	2,6894145	2,779414658413993E-005	0,010005891204746698	2,69099892E-005	0,091540523620902784	-0,0034155000138388819	0,098673637073332442
1	1	0	0	0	0	2	164047,92	0,0100000007	2,6894908	2,7626558579659712E-005	0,010005995746118842	2,69110333E-005	0,092930052311147213	-0,0034673451975130957	0,10006316576357688

File: LLTO_LP30_LTO_05_GCPL_C01_loop4.txt
EC-Lab ASCII FILE
Nb header lines : 3
mode	ox/red	error	control changes	Ns changes	counter inc.	Ns	time/s	control/V/mA	Ewe/V	dq/mA.h	<I>/mA	P/W	(Q-Qo)/mA.h	x	Capacity/mA.h
1	0	0	1	1	0	1	164047,97	-0,0100000007	2,68845963	0	0	0	0	0	0
1	0	0	1	0	0	1	164737,97	-0,0100000007	1,93123198	-2,7757609289605171E-005	-0,0099927377807721984	1,92982952E-005	-0,0019152050274605251	7,145887459509824E-005	0,0019152050274605251
1	0	0	1	0	0	1	165427,97	-0,0100000007	1,53302681	-2,7758021835030781E-005	-0,0099928862971021811	1,53193632E-005	-0,0038305072059850112	0,00014292137402701386	0,0038305072059850112
1	0	0	1	0	0	1	166117,97	-0,0100000007	1,23048711	-2,7758541611230208E-005	-0,0099930734165046989	1,22963484E-005	-0,0057458003892446266	0,00021438353783350291	0,0057458003892446266
1	0	0	1	0	0	1	166807,97	-0,0100000007	0,980133772	-2,7759623354611299E-005	-0,00999346284406096	9,79493052E-006	-0,007661112367447616	0,00028584640290459926	0,007661112367447616
1	1	0	0	0	0	2	167482,61	0,0100000007	1,45950508	2,779391141416919E-005	0,010005806543570478	1,46035254E-005	-0,007145124794521673	0,00026659421280606208	0,0011951049703865101
1	1	0	0	0	0	2	168172,61	0,0100000007	1,92521071	2,7793596092197632E-005	0,01000569302767848	1,92630669E-005	-0,0052273304422173267	0,00019503872701965664	0,003112899322690855
1	1	0	0	0	0	2	168862,61	0,0100000007	2,20079494	2,7795142202068947E-005	0,010006249627145066	2,20217044E-005	-0,003309542439373049	0,00012348347814014325	0,0050306873255351354
1	1	0	0	0	0	2	169552,61	0,0100000007	2,3451333	2,7797073406374291E-005	0,010006944860586211	2,3467619E-005	-0,0013916326040910093	5,1923683528571514E-005	0,006948597160817175
1	1	0	0	0	0	2	170242,61	0,0100000007	2,42370892	2,779571753776529E-005	0,010006456747963341	2,42527385E-005	0,00052630636500785024	-1,9637198104876605E-005	0,0088665361299160397
1	1	0	0	0	0	2	170932,61	0,0100000007	2,46848631	2,7795029393500749E-005	0,010006209016066869	2,47001899E-005	0,0024441840401165645	-9,119579277714176E-005	0,010784413805024758
1	1	0	0	0	0	2	171622,61	0,0100000007	2,49344349	2,7795363667731485E-005	0,010006329354771104	2,49502173E-005	0,0043620307262186522	-0,00016275323120790451	0,012702260491126848
1	1	0	0	0	0	2	172312,61	0,0100000007	2,50828028	2,7794042344774224E-005	0,010005853678580915	2,50974863E-005	0,0062798602108428723	-0,00023431002782840042	0,014620089975751069
1	1	0	0	0	0	2	173002,61	0,0100000007	2,51822853	2,7794309465628531E-005	0,010005949842073419	2,51972688E-005	0,0081976741152010483	-0,00030586624312822234	0,016537903880109248
1	1	0	0	0	0	2	173692,61	0,0100000007	2,52552295	2,7793719137604867E-005	0,010005737324018152	2,52697191E-005	0,01011546735544792	-0,00037742168742226816	0,018455697120356125
1	1	0	0	0	0	2	174382,61	0,0100000007	2,53172874	2,7793933070937379E-005	0,010005814340005806	2,53320086E-005	0,012033262279104589	-0,00044897719452659699	0,020373492044012803
1	1	0	0	0	0	2	175072,61	0,0100000007	2,53650236	2,7794400622964736E-005	0,01000598265870932	2,53801991E-005	0,013951060925819904	-0,00052053284054324966	0,022291290690728112
1	1	0	0	0	0	2	175762,61	0,0100000007	2,54125714	2,7794396264219866E-005	0,010005981089561411	2,54277711E-005	0,015868891044517302	-0,00059208966082186829	0,024209120809425517
1	1	0	0	0	0	2	176452,61	0,0100000007	2,54498053	2,7793982822861936E-005	0,010005832250695845	2,54646475E-005	0,017786709971776694	-0,00066364606353288794	0,026126939736684909
1	1	0	0	0	0	2	177142,61	0,0100000007	2,54824591	2,7793427149609974E-005	0,010005632208356437	2,54968108E-005	0,01970448525419199	-0,00073520083779609331	0,028044715019100205
1	1	0	0	0	0	2	177832,61	0,0100000007	2,55097628	2,7792937759827408E-005	0,01000545602806228	2,5523681E-005	0,021622233088583504	-0,00080675458793662694	0,029962462853491718
1	1	0	0	0	0	2	178522,61	0,0100000007	2,55380249	2,7793617148469722E-005	0,010005700607935245	2,55525829E-005	0,023539943846229283	-0,00087830695469392704	0,031880173611137498
1	1	0	0	0	0	2	179212,61	0,0100000007	2,55605555	2,7793803151024298E-005	0,010005767568844414	2,55752984E-005	0,025457707217408688	-0,0009498612845329065	0,033797936982316877
1	1	0	0	0	0	2	179902,61	0,0100000007	2,55720139	2,7793985731847997E-005	0,010005833297930664	2,55869309E-005	0,02737547640387391	-0,0010214158313480182	0,035715706168782086
1	1	0	0	0	0	2	180592,62	0,0100000007	2,5588243	2,7794003155444643E-005	0,010005839570424477	2,56031853E-005	0,029293245083468525	-0,0010929703592511064	0,037633474848376723
1	1	0	0	0	0	2	181282,62	0,0100000007	2,56021833	2,7793733065533968E-005	0,010005742338071845	2,56168842E-005	0,031211012545069862	-0,0011645248417092278	0,039551242309978067
1	1	0	0	0	0	2	181972,62	0,0100000007	2,56126857	2,7792778110545542E-005	0,010005398554329802	2,56265121E-005	0,033128728517766893	-0,0012360774030471019	0,041468958282675098
1	1	0	0	0	0	2	182662,62	0,0100000007	2,56228065	2,7791599389010419E-005	0,010004974214643549	2,56355524E-005	0,035046381626615648	-0,0013076276188502754	0,043386611391523853
1	1	0	0	0	0	2	183352,62	0,0100000007	2,56375098	2,7791174463513824E-005	0,01000482124148871	2,56498697E-005	0,036963989554139859	-0,0013791761488774832	0,045304219319048064
1	1	0	0	0	0	2	184042,62	0,0100000007	2,5654695	2,7791226355410698E-005	0,010004839922568662	2,56671119E-005	0,038881569923071635	-0,0014507236506565542	0,04722179968797984
1	1	0	0	0	0	2	184732,62	0,0100000007	2,56726432	2,7792053784140282E-005	0,010005137796864706	2,5685833E-005	0,040799185617060934	-0,0015222724704610166	0,049139415381969133
1	1	0	0	0	0	2	185422,62	0,0100000007	2,56959391	2,7792053614380874E-005	0,010005137735751326	2,57091415E-005	0,042716792865622221	-0,0015938209751552051	0,051057022630530426
1	1	0	0	0	0	2	186112,62	0,0100000007	2,57131243	2,7791360908498365E-005	0,010004888361672642	2,57256943E-005	0,044634408644864486	-0,0016653697981405702	0,052974638409772691
1	1	0	0	0	0	2	186802,62	0,0100000007	2,5734129	2,7791532236461834E-005	0,01000495003972984	2,57468673E-005	0,04655203107167063	-0,0017369188691554813	0,054892260836578835
1	1	0	0	0	0	2	187492,62	0,0100000007	2,57408118	2,7792291750044874E-005	0,010005223464576954	2,57542579E-005	0,048469665583493024	-0,0018084683910785978	0,056809895348401229
1	1	0	0	0	0	2	188182,62	0,0100000007	2,57589531	2,7792960810992451E-005	0,010005464326480397	2,5773028E-005	0,050387336285794413	-0,0018800192633171434	0,058727566050702618
1	1	0	0	0	0	2	188872,62	0,0100000007	2,57734656	2,7792720547256371E-005	0,010005377831548939	2,57873253E-005	0,052305023251112685	-0,0019515707423507152	0,06064525301602089
1	1	0	0	0	0	2	189562,62	0,0100000007	2,57875943	2,7793029719653229E-005	0,010005489133594395	2,58017499E-005	0,054222736108451712	-0,0020231231874503936	0,062562965873359923
1	1	0	0	0	0	2	190252,62	0,0100000007	2,58021069	2,7793081712184678E-005	0,010005507850902789	2,58163182E-005	0,056140452799507501	-0,0020946757755911987	0,064480682564415744
1	1	0	0	0	0	2	190942,62	0,0100000007	2,58021069	2,7793982871394189E-005	0,010005832268167454	2,58171549E-005	0,058058191695340122	-0,0021662291922220819	0,066398421460248371
1	1	0	0	0	0	2	191632,62	0,0100000007	2,58212018	2,7794137426703754E-005	0,01000588790807019	2,58364053E-005	0,059975961519966925	-0,0022377837628478605	0,068316191284875162
1	1	0	0	0	0	2	192322,62	0,0100000007	2,58372426	2,7794314704214534E-005	0,010005951727964086	2,58526197E-005	0,06189374894875415	-0,0023093389903085334	0,070233978713662349
1	1	0	0	0	0	2	193012,62	0,0100000007	2,58500361	2,7795138636759171E-005	0,010006248343633747	2,58661876E-005	0,063811593826646451	-0,0023808963612725578	0,072151823591554611
1	1	0	0	0	0	2	193702,62	0,0100000007	2,58630204	2,779442587872553E-005	0,010005991750781782	2,58785167E-005	0,065729415087732762	-0,0024524528510617978	0,074069644852640934
1	1	0	0	0	0	2	194392,62	0,0100000007	2,58731389	2,7793767351398454E-005	0,010005754680981128	2,58880282E-005	0,06764721793176416	-0,0025240086536859568	0,075987447696672333
1	1	0	0	0	0	2	195082,62	0,0100000007	2,5868175	2,7794289287955808E-005	0,010005942578112378	2,5883548E-005	0,069565012541384742	-0,002595564149073177	0,077905242306292902
1	1	0	0	0	0	2	195772,62	0,0100000007	2,58842158	2,7794063441662326E-005	0,010005861273459445	2,58993878E-005	0,071482807552646886	-0,0026671196594461837	0,079823037317555046
1	1	0	0	0	0	2	196462,62	0,0100000007	2,58989191	2,7794086523250573E-005	0,010005869582829914	2,59141216E-005	0,073400613072585446	-0,0027386755619120368	0,081740842837493606
1	1	0	0	0	0	2	197152,62	0,0100000007	2,59054112	2,7794059172790083E-005	0,010005859736665677	2,59205917E-005	0,075318418310683776	-0,0028102314538620525	0,083658648075591949
1	1	0	0	0	0	2	197842,62	0,0100000007	2,59172487	2,7794069524647462E-005	0,01000586346333375	2,59324461E-005	0,077236212225983706	-0,0028817869233432352	0,085576441990891866
1	1	0	0	0	0	2	198532,62	0,0100000007	2,59281325	2,7793809412564669E-005	0,010005769822998595	2,59430926E-005	0,079154001662331315	-0,0029533422257086848	0,087494231427239488
1	1	0	0	0	0	2	199222,62	0,0100000007	2,59256506	2,779481949351935E-005	0,010006133452085386	2,59415519E-005	0,081071817660911322	-0,0030248985191467392	0,089412047425819482
1	1	0	0	0	0	2	199912,62	0,0100000007	2,59436011	2,7794580573112602E-005	0,010006047440752414	2,59592907E-005	0,082989650587704627	-0,0030964554441991917	0,0913298803526128
1	1	0	0	0	0	2	200602,62	0,0100000007	2,59548664	2,7794860981766963E-005	0,01000614838785219	2,59708249E-005	0,084907500116910758	-0,0031680129887099891	0,093247729881818931
1	1	0	0	0	0	2	201292,62	0,0100000007	2,59672785	2,779460174435129E-005	0,010006055062397149	2,59830013E-005	0,086825333350151296	-0,0032395699251964	0,095165563115059469
1	1	0	0	0	0	2	201982,62	0,0100000007	2,59796906	2,7795210191462605E-005	0,010006274103322952	2,59959907E-005	0,088743161865522893	-0,003311126685652777	0,097083391630431066
1	1	0	0	0	0	2	202672,62	0,0100000007	2,59903836	2,7794528835608317E-005	0,010006028815253787	2,60060533E-005	0,090661031670699405	-0,0033826849866872902	0,099001261435607565
1	1	0	0	0	0	2	203052,62	0,0100000007	2,59907651	2,77952508129076E-005	0,010006288727040861	2,60071101E-005	0,09171723905221815	-0,0034220935041776826	0,10005746881712632