Folder: thesis/Experimentelles/Rohdaten/Batterietests/AlteZelle/150511_LLTO_LTO_Tests/ZView-Export (part 4)

File: LLTO_LP30_LTO_05_GCPL_C01_loop9.txt
EC-Lab ASCII FILE
Nb header lines : 3
mode	ox/red	error	control changes	Ns changes	counter inc.	Ns	time/s	control/V/mA	Ewe/V	dq/mA.h	<I>/mA	P/W	(Q-Qo)/mA.h	x	Capacity/mA.h
1	0	0	1	1	0	1	361581,82	-0,0100000007	2,64763474	0	0	0	0	0	0
1	0	0	1	0	0	1	362281,83	-0,0100000007	1,80734432	-2,7756421387506029E-005	-0,0099921193021646234	1,80591996E-005	-0,001942812884038008	7,2488960843162074E-005	0,001942812884038008
1	0	0	1	0	0	1	362981,84	-0,0100000007	1,46317768	-2,7756253398385725E-005	-0,0099920588268967936	1,46201573E-005	-0,0038857382726339782	0,0001449821193826457	0,0038857382726339782
1	0	0	1	0	0	1	363681,86	-0,0100000007	1,22831035	-2,7755338349172637E-005	-0,0099917294158718298	1,22729443E-005	-0,0058286734288959923	0,00021747564236688221	0,0058286734288959923
1	0	0	1	0	0	1	364381,87	-0,0100000007	1,05158699	-2,7755371351260694E-005	-0,0099917412959295027	1,05071849E-005	-0,0077715808913913702	0,00028996813205945082	0,0077715808913913702
1	0	0	1	0	0	1	365081,88	-0,0100000007	0,913645327	-2,7757834115893475E-005	-0,0099926278745915904	9,12971791E-006	-0,0097145845862056294	0,00036246421230922266	0,0097145845862056294
1	1	0	0	0	0	2	365763,93	0,0100000007	1,47241318	2,7796392196841123E-005	0,010006508516462262	1,4733715E-005	-0,0082744978813472128	0,00030873264113378784	0,0016677902944837693
1	1	0	0	0	0	2	366463,94	0,0100000007	1,79864967	2,7796728225580106E-005	0,010006629484013107	1,79984199E-005	-0,0063287482569028851	0,00023613410655757651	0,003613539918928096
1	1	0	0	0	0	2	367163,96	0,0100000007	2,01138616	2,7796618915318202E-005	0,010006590133542482	2,01271178E-005	-0,0043829709118617613	0,00016353453768862797	0,0055593172639692198
1	1	0	0	0	0	2	367863,97	0,0100000007	2,14669251	2,779651458090585E-005	0,010006552573527773	2,14809916E-005	-0,0024372060905788643	9,0935436097937229E-005	0,0075050820852521178
1	1	0	0	0	0	2	368563,98	0,0100000007	2,23829722	2,779786052337537E-005	0,010007037103836691	2,23987226E-005	-0,00049142031200897837	1,8335552562691584E-005	0,0094508678638220019
1	1	0	0	0	0	2	369264,00	0,0100000007	2,30262804	2,7798130675788144E-005	0,010007134356599698	2,30427086E-005	0,0014544221688511034	-5,426644661123831E-005	0,011396710344682083
1	1	0	0	0	0	2	369964,01	0,0100000007	2,34696651	2,7798409422031706E-005	0,010007234703548206	2,34866438E-005	0,0034002671407781402	-0,00012686853873022558	0,013342555316609126
1	1	0	0	0	0	2	370664,02	0,0100000007	2,38034439	2,7797468825346893E-005	0,010006896094795573	2,38198591E-005	0,0053461236349395936	-0,00019947106075927072	0,015288411810770589
1	1	0	0	0	0	2	371364,04	0,0100000007	2,40858555	2,7798273178283123E-005	0,010007185656277122	2,4103163E-005	0,0072919784760919014	-0,00027207352111232214	0,017234266651922909
1	1	0	0	0	0	2	372064,05	0,0100000007	2,43300796	2,7798252247946544E-005	0,010007178121967022	2,43475442E-005	0,009237842816839968	-0,00034467633590806368	0,019180130992670992
1	1	0	0	0	0	2	372764,06	0,0100000007	2,45426059	2,779799386765808E-005	0,010007085106504685	2,45599949E-005	0,011183709216774234	-0,00041727922753481094	0,021125997392605232
1	1	0	0	0	0	2	373464,08	0,0100000007	2,47303104	2,7797949584925338E-005	0,010007069165377338	2,47477928E-005	0,013129561958266731	-0,00048988160954673184	0,023071850134097731
1	1	0	0	0	0	2	374164,09	0,0100000007	2,48958635	2,7797982031841658E-005	0,01000708084580931	2,49134919E-005	0,015075404870959101	-0,00056248362483290496	0,025017693046790093
1	1	0	0	0	0	2	374864,10	0,0100000007	2,50434661	2,7797352763565466E-005	0,01000685431382473	2,50606317E-005	0,017021265059061293	-0,0006350862846878455	0,026963553234892288
1	1	0	0	0	0	2	375564,12	0,0100000007	2,51773214	2,7797778177644227E-005	0,01000700745947829	2,51949641E-005	0,018967100045529811	-0,00070768800423594995	0,028909388221360806
1	1	0	0	0	0	2	376264,13	0,0100000007	2,52947545	2,7797100310213866E-005	0,010006763431902099	2,53118633E-005	0,020912948062133818	-0,00078029020995592845	0,030855236237964813
1	1	0	0	0	0	2	376964,15	0,0100000007	2,54016876	2,7797427504375165E-005	0,010006881219998146	2,54191673E-005	0,022858779939026787	-0,00085289181348158835	0,032801068114857766
1	1	0	0	0	0	2	377664,16	0,0100000007	2,55004072	2,7798019523163222E-005	0,010007094342425197	2,55184987E-005	0,024804610672182208	-0,00092549337433286234	0,034746898848013171
1	1	0	0	0	0	2	378364,17	0,0100000007	2,55903435	2,7797651681272931E-005	0,01000696192212743	2,56081585E-005	0,026750442513899309	-0,0009980949765460631	0,03669273068973031
1	1	0	0	0	0	2	379064,19	0,0100000007	2,56713057	2,7798306962371699E-005	0,010007197818431326	2,56897838E-005	0,028696294840029338	-0,0010706973430602518	0,038638583015860352
1	1	0	0	0	0	2	379764,20	0,0100000007	2,57444406	2,7798187326070749E-005	0,01000715475054175	2,57628599E-005	0,030642167172666182	-0,0011433004560441091	0,04058445534849719
1	1	0	0	0	0	2	380464,21	0,0100000007	2,58139467	2,7797404501224973E-005	0,010006872938557552	2,58316886E-005	0,032588018433934227	-0,0012159027828268651	0,042530306609765229
1	1	0	0	0	0	2	381164,23	0,0100000007	2,58788681	2,779794095999872E-005	0,010007066059997555	2,5897154E-005	0,034533872962011334	-0,0012885052314986602	0,044476161137842336
1	1	0	0	0	0	2	381864,24	0,0100000007	2,59340525	2,7798464844624202E-005	0,010007254655297334	2,59528661E-005	0,036479727072147904	-0,0013611076645765315	0,046422015247978906
1	1	0	0	0	0	2	382564,25	0,0100000007	2,59829354	2,7797244043865552E-005	0,010006815175253379	2,60006436E-005	0,038425592881328141	-0,0014337105341614518	0,048367881057159149
1	1	0	0	0	0	2	383264,27	0,0100000007	2,60348749	2,7797415987329763E-005	0,010006877073941634	2,60527795E-005	0,040371440228719008	-0,0015063127149121885	0,050313728404550016
1	1	0	0	0	0	2	383964,28	0,0100000007	2,60858583	2,7798165567633178E-005	0,010007146917305557	2,61045025E-005	0,042317295984528704	-0,0015789152093923366	0,052259584160359712
1	1	0	0	0	0	2	384664,29	0,0100000007	2,6133976	2,7797934206720032E-005	0,010007063629330022	2,61524365E-005	0,044263177747445088	-0,0016515186742326022	0,05420546592327609
1	1	0	0	0	0	2	385364,31	0,0100000007	2,61784673	2,7798089184798301E-005	0,010007119419897963	2,61971054E-005	0,046209055948098413	-0,0017241220061600438	0,056151344123929414
1	1	0	0	0	0	2	386064,32	0,0100000007	2,62225771	2,7797919403140746E-005	0,010007058300144091	2,62410849E-005	0,048154912708482842	-0,0017967245381222266	0,058097200884313843
1	1	0	0	0	0	2	386764,33	0,0100000007	2,62632489	2,7798501278532461E-005	0,010007267771251762	2,6282336E-005	0,050100797150810272	-0,0018693281029349206	0,060043085326641267
1	1	0	0	0	0	2	387464,35	0,0100000007	2,630373	2,7798205078993405E-005	0,010007161141237858	2,63225666E-005	0,052046663962260678	-0,0019419310099158886	0,061988952138091686
1	1	0	0	0	0	2	388164,36	0,0100000007	2,6341157	2,7797980932674064E-005	0,010007080450349586	2,63598085E-005	0,053992539482062176	-0,0020145342418171437	0,063934827657893197
1	1	0	0	0	0	2	388864,37	0,0100000007	2,63770556	2,7797536751151914E-005	0,010006920547731035	2,63953098E-005	0,055938395249587526	-0,0020871367367344189	0,065880683425418458
1	1	0	0	0	0	2	389564,39	0,0100000007	2,64098978	2,7797793478187587E-005	0,010007012968033821	2,6428419E-005	0,057884243576483853	-0,0021597389540318214	0,067826531752314752
1	1	0	0	0	0	2	390264,40	0,0100000007	2,6441977	2,7798319685738534E-005	0,010007202398638698	2,64610208E-005	0,05983011076193431	-0,0022323418749672342	0,069772398937765248
1	1	0	0	0	0	2	390964,41	0,0100000007	2,6472528	2,7798761225408979E-005	0,010007361350325451	2,64920145E-005	0,06177600652805623	-0,0023049458622859254	0,071718294703887053
1	1	0	0	0	0	2	391664,43	0,0100000007	2,6502316	2,7798033910027395E-005	0,010007099521829565	2,65211311E-005	0,063721868655738355	-0,0023775485945092016	0,073664156831569178
1	1	0	0	0	0	2	392364,44	0,0100000007	2,65311503	2,7797422695904973E-005	0,010006879488516234	2,65494018E-005	0,065667722705503936	-0,0024501510253345498	0,075610010881334758
1	1	0	0	0	0	2	393064,46	0,0100000007	2,6558075	2,7797739717229786E-005	0,010006993614461664	2,65766485E-005	0,067613572503454387	-0,0025227532975189597	0,07755586067928521
1	1	0	0	0	0	2	393764,47	0,0100000007	2,65840435	2,7797673707827926E-005	0,010006969851185066	2,66025727E-005	0,069559429599077978	-0,0025953558419893654	0,0795017177749088
1	1	0	0	0	0	2	394464,48	0,0100000007	2,66121125	2,7798951991419824E-005	0,010007430024767037	2,66318857E-005	0,071505316611862515	-0,002667959502709271	0,08144760478769335
1	1	0	0	0	0	2	395164,50	0,0100000007	2,66390371	2,7798324704946333E-005	0,010007204205518712	2,66582283E-005	0,073451228124211546	-0,0027405640775408675	0,083393516300042381
1	1	0	0	0	0	2	395864,51	0,0100000007	2,66638589	2,7798931217855878E-005	0,01000742254642801	2,66836505E-005	0,075397149268215578	-0,0028131690117424614	0,0853394374440464
1	1	0	0	0	0	2	396564,52	0,0100000007	2,66879201	2,7798292861268339E-005	0,01000719274248135	2,67071155E-005	0,077343069880401152	-0,0028857739261011949	0,087285358056231987
1	1	0	0	0	0	2	397264,54	0,0100000007	2,6711216	2,7799091805910899E-005	0,010007480356548682	2,67311971E-005	0,079288985503640998	-0,0029583786543156544	0,089231273679471821
1	1	0	0	0	0	2	397964,55	0,0100000007	2,67360377	2,7798831345823904E-005	0,010007386593188776	2,67557862E-005	0,081234929616013888	-0,0030309844454979725	0,091177217791844723
1	1	0	0	0	0	2	398664,56	0,0100000007	2,67610526	2,7799051413416035E-005	0,010007465815647016	2,67810319E-005	0,083180838668431411	-0,0031035889285462163	0,093123126844262246
1	1	0	0	0	0	2	399364,58	0,0100000007	2,6783967	2,7798820060108688E-005	0,010007382530409526	2,68037402E-005	0,085126754038474752	-0,0031761936473135744	0,095069042214305574
1	1	0	0	0	0	2	400064,59	0,0100000007	2,68093634	2,7799553201999517E-005	0,01000764645617535	2,68298627E-005	0,087072687989198707	-0,0032487990593511078	0,09701497616502953
1	1	0	0	0	0	2	400764,60	0,0100000007	2,6831131	2,7799004939798682E-005	0,010007449085816406	2,68511176E-005	0,089018633060305075	-0,0033214048863050611	0,09896092123613591
1	1	0	0	0	0	2	401163,89	0,0100000007	2,68425894	2,5797970056637293E-005	0,010007624985396051	2,68630574E-005	0,090128597037886144	-0,0033628191346710502	0,10007088521371698