Folder: thesis/Experimentelles/Rohdaten/Batterietests/AlteZelle/Studenten_Batterietests/SemArbeitToph/ECLab-Export (part 4)

File: Al_Struktur_01_01_GCPL_C03.mpt
EC-Lab ASCII FILE
Nb header lines : 68

Galvanostatic Cycling with Potential Limitation

Run on channel : 3 (SN 6987)
Grouped channel(s) : 3
User :
CE vs. WE compliance from -10 V to 10 V
Electrode connection : standard
Ewe ctrl range : min = -10,00 V, max = 10,00 V
Acquisition started on : 03.11.2015 16:50:59
Saved on :
	File : Al_Struktur_01_01_GCPL_C03.mpr
	Directory : C:\Hupfer\Studenten Batterietests\SemArbeitToph\
	Host : 192.168.0.2
Device : VMP3 (SN 0324)
Address : 192.168.0.1
EC-Lab for windows v10.33 (software)
Internet server v10.33 (firmware)
Command interpretor v10.32 (firmware)
Electrode material :
Initial state :
Electrolyte :
Comments :
Mass of active material : 0,001 mg
 at x = 0,000
Molecular weight of active material (at x = 0) : 0,001 g/mol
Atomic weight of intercalated ion : 0,001 g/mol
Acquisition started at : xo = 0,000
Number of e- transfered per intercalated ion : 1
for DX = 1, DQ = 26,801 mA.h
Battery capacity : 0,000 A.h
Electrode surface area : 0,001 cm²
Characteristic mass : 0,001 g
Ns                  0                   1
Set I/C             I                   I
Is                  0,000               100,000
unit Is             mA                  µA
vs.                 <None>              <None>
N                   1                   1
I sign              > 0                 > 0
t1 (h:m:s)          0:00:0,0000         10:00:0,0000
I Range             1 A                 1 A
Bandwidth           5                   5
dE1 (mV)            0,00                10,00
dt1 (s)             0,0000              10,0000
EM (V)              0,000               4,200
tM (h:m:s)          0:00:0,0000         1:00:0,0000
Im                  0,000               0,000
unit Im             mA                  mA
E range min (V)     -10,000             -10,000
E range max (V)     10,000              10,000
dq                  0,000               1,000
unit dq             mA.h                mA.h
dtq (s)             0,0000              120,0000
dQM                 0,000               0,000
unit dQM            mA.h                mA.h
dxM                 0,000               0,000
tR (h:m:s)          0:00:0,0000         0:15:0,0000
dER/dt (mV/h)       0,0                 0,1
dER (mV)            0,00                5,00
dtR (s)             1,0000              120,0000
EL (V)              pass                4,200
goto Ns'            0                   0
nc cycles           0                   0

mode	ox/red	error	control changes	Ns changes	counter inc.	Ns	time/s	control/V/mA	Ewe/V	dq/mA.h	<I>/mA	P/W	(Q-Qo)/mA.h	x	Capacity/mA.h
1	1	1	1	1	0	1	0,0004	0,100000001	2,87895489	0	0	0	0	0	0
1	1	0	1	0	0	1	0,7880	0,100000001	2,99030542	4,5468544914490643E-006	0,20512126043514016	0,000613375218	4,2548761130621043E-005	-1,5875514852012406E-006	4,2548761130621043E-005
1	1	0	1	0	0	1	1,7682	0,100000001	3,10140824	5,5546653605997562E-006	0,20488520290287578	0,000635432662	9,8859443979130854E-005	-3,6885787727974502E-006	9,8859443979130854E-005
1	1	0	1	0	0	1	2,9594	0,100000001	3,21212983	6,880850708319081E-006	0,21099713096864038	0,000677750155	0,00016764113194412653	-6,2549160287344576E-006	0,00016764113194412653
1	1	0	1	0	0	1	4,4188	0,100000001	3,32308006	8,8662529186242163E-006	0,21082239969205149	0,000700579723	0,00025226441288656656	-9,4123244179081997E-006	0,00025226441288656656
1	1	0	1	0	0	1	6,1820	0,100000001	3,43414474	9,7402326775093875E-006	0,20921741363273341	0,000718482886	0,00035457375502296608	-1,3229623529390749E-005	0,00035457375502296608
1	1	0	1	0	0	1	8,2916	0,100000001	3,54479003	1,2644782394998605E-005	0,20823978852679626	0,000738166331	0,00047767663559565926	-1,7822757517141181E-005	0,00047767663559565926
1	1	0	1	0	0	1	10,8886	0,100000001	3,65562606	1,5235094285673568E-005	0,20885887590997696	0,000763509946	0,00062862257873225536	-2,3454753604546592E-005	0,00062862257873225536
1	1	0	1	0	0	1	14,3382	0,100000001	3,76651907	2,221589366843303E-005	0,20827400840300365	0,000784468022	0,00082833476696411776	-3,0906283863370253E-005	0,00082833476696411776
1	1	0	1	0	0	1	69,3104	0,100000001	3,82841873	0,00057460268681330816	0,2068569724784376	0,000791935134	0,0039918117995034483	-0,00014893986528751933	0,0039918117995034483
1	1	0	1	0	0	1	179,3104	0,100000001	3,83453798	0,00058273319461527795	0,20978395536108851	0,000804424519	0,010348566807941219	-0,00038611894140034029	0,010348566807941219
1	1	0	1	0	0	1	289,3104	0,100000001	3,83671141	0,00058184878275336499	0,20946556708275667	0,000803658913	0,016738719064364205	-0,00062454411373856717	0,016738719064364205
1	1	0	1	0	0	1	399,3104	0,100000001	3,84122944	0,00057337455304629274	0,20641484431114294	0,000792886771	0,023126973423992384	-0,00086289847299563034	0,023126973423992384
1	1	0	1	0	0	1	509,3104	0,100000001	3,84957933	0,00058571919007019866	0,21085891375201574	0,000811718113	0,029508237711406202	-0,0011009920232601238	0,029508237711406202
1	1	0	1	0	0	1	619,3104	0,100000001	3,85545087	0,00058316602953068096	0,20993977593456995	0,000809412508	0,03592915413773287	-0,0013405650481403235	0,03592915413773287
1	1	0	1	0	0	1	722,2494	0,100000001	3,86442971	0,00058748377077778189	0,21149416282279341	0,000817304302	0,04197380460619367	-0,0015660990842375866	0,04197380460619367
1	1	0	1	0	0	1	832,2494	0,100000001	3,86925292	0,00059177746502434214	0,21303989279060352	0,000824305229	0,048390775302785958	-0,0018055248886363066	0,048390775302785958
1	1	0	1	0	0	1	942,2494	0,100000001	3,87175035	0,00057561298867315059	0,2072206811571689	0,000802306749	0,054775113992168666	-0,0020437331489718365	0,054775113992168666
1	1	0	1	0	0	1	1052,2494	0,100000001	3,87952828	0,00057842641594757645	0,20823351500154854	0,000807847828	0,061157556906759322	-0,0022818706754009782	0,061157556906759322
1	1	0	1	0	0	1	1162,2494	0,100000001	3,89005136	0,0005810092808736695	0,20916334639843158	0,000813656137	0,067600323719155866	-0,0025222589675636016	0,067600323719155866
1	1	0	1	0	0	1	1272,2494	0,100000001	3,89674258	0,00058493662150038618	0,21057718905976627	0,000820565096	0,074011840129920602	-0,0027614812652247302	0,074011840129920602
1	1	0	1	0	0	1	1382,2494	0,100000001	3,8998692	0,00058612444235922573	0,21100480457975094	0,000822891132	0,080468362889677875	-0,0030023828102784506	0,080468362889677875
1	1	0	1	0	0	1	1492,2494	0,100000001	3,90581703	0,00058427287046445734	0,21033823868079552	0,000821542693	0,086899616786603072	-0,0032423415400855578	0,086899616786603072
1	1	0	1	0	0	1	1591,9544	0,100000001	3,91227961	0,00058629665693599322	0,21106680182895341	0,00082575233	0,092760704969798694	-0,0034610266205174605	0,092760704969798694
1	1	0	1	0	0	1	1701,9544	0,100000001	3,91662598	0,00058799829231161216	0,21167939057965158	0,000829069002	0,099170474834182131	-0,0037001837521848461	0,099170474834182131
1	1	0	1	0	0	1	1811,9544	0,100000001	3,92167783	0,00059214487981879053	0,21317216211994637	0,000835992571	0,1056882214639476	-0,0039433696421449402	0,1056882214639476
1	1	0	1	0	0	1	1921,9544	0,100000001	3,92789268	0,00059001040915110042	0,21240375266016627	0,000834299135	0,11219987480930482	-0,004186328183471255	0,11219987480930482
1	1	0	1	0	0	1	2031,9543	0,100000001	3,93443155	0,00058621426266969907	0,21103713989233821	0,000830311154	0,11867884098145485	-0,0044280671224168371	0,11867884098145485
[...]
1	1	0	1	0	0	1	3021,9543	0,100000001	4,03262854	0,00059289880463729306	0,21344357506146374	0,000860738626	0,1766354036227639	-0,0065905043979913037	0,1766354036227639
1	1	0	1	0	0	1	3131,9543	0,100000001	4,0536747	0,00058736141664120883	0,2114501153325144	0,000857150008	0,18314059414792189	-0,0068332218028066304	0,18314059414792189
1	1	0	1	0	0	1	3241,9543	0,100000001	4,0790863	0,00058967906424941299	0,21228446849254541	0,000865926675	0,18960039322789286	-0,0070742455917725824	0,18960039322789286
1	1	0	1	0	0	1	3351,9543	0,100000001	4,10268736	0,00058885547539219264	0,21198797649645606	0,000869720418	0,19606905092608624	-0,0073155999076949517	0,19606905092608624
1	1	0	1	0	0	1	3461,9543	0,100000001	4,12491512	0,00059348086852497523	0,21365311806632282	0,000881301006	0,20250725953219405	-0,0075558181270523686	0,20250725953219405
1	1	0	1	0	0	1	3571,9543	0,100000001	4,15328217	0,0005931198191982176	0,21352314030540656	0,000886821828	0,20897809059947843	-0,0077972535342976486	0,20897809059947843
1	1	0	1	0	0	1	3681,9543	0,100000001	4,18250656	0,0005925395232931607	0,21331423377430867	0,000892188167	0,21545828490549315	-0,0080390382965689677	0,21545828490549315
2	1	0	0	0	0	1	4109,9197	4,20005465	4,19941759	0,0037748424224726496	0,11324508662038525	0,0004755634	0,23283520537642963	-0,0086873945628576627	0,23283520537642963
2	1	0	0	0	0	1	5429,9197	4,20005465	4,19947481	0,0033650152488068109	0,10095045868643107	0,000423938909	0,27102023413867322	-0,010112129326294171	0,27102023413867322
2	1	0	0	0	0	1	6749,9197	4,20005465	4,19955111	0,0031423453512502477	0,094270361678856922	0,000395893207	0,30708883351082419	-0,011457897263616746	0,30708883351082419
3	1	0	1	0	0	1	7949,9192	0	4,19291687	0	0	0	0,32340360056697146	-0,012066623157919203	0,32340360056697146
2	1	0	0	0	0	1	8969,9198	4,20005465	4,19937944	0,0034572091003127091	0,10371627426509426	0,000435544003	0,34372820727981978	-0,012824961561099933	0,34372820727981978
2	1	0	0	0	0	1	10289,9198	4,20005465	4,19932222	0,0024371323668176	0,073113971889732992	0,000307029113	0,37956074257987744	-0,014161921630501184	0,37956074257987744
2	1	0	0	0	0	1	11609,9198	4,20005465	4,19936037	0,0034193887283785472	0,10258166309333245	0,000430777378	0,41540025533296973	-0,015499142038056445	0,41540025533296973
3	1	0	1	0	0	1	12201,1712	0	4,20361137	0	0	0	0,42193112765838573	-0,015742817665368947	0,42193112765838573
2	1	0	0	0	0	1	13109,9204	4,20005465	4,19932222	0,003076671479364935	0,092300145498443763	0,000387598062	0,43151868859095616	-0,01610054245437592	0,43151868859095616
2	1	0	0	0	0	1	14429,9204	4,20005465	4,19960833	0,0035214497337201222	0,10564349329064989	0,000443661294	0,46845254491461594	-0,017478594291909632	0,46845254491461594
2	1	0	0	0	0	1	15749,9204	4,20005465	4,19947481	0,0032759170209977434	0,098277511819797158	0,00041271394	0,50331027790309235	-0,018779183176430144	0,50331027790309235
3	1	0	1	0	0	1	16771,0559	0	4,19602394	0	0	0	0,51983769773195098	-0,019395843431597152	0,51983769773195098
1	1	0	1	0	0	1	17249,9205	0,100000001	4,20991373	0	0	0	0,51983769773195098	-0,019395843431597152	0,51983769773195098
2	1	0	0	0	0	1	18449,9209	4,20005465	4,19937944	0,0036609184334620365	0,10982755433356456	0,000461207586	0,55162753770934234	-0,020581965103048054	0,55162753770934234
2	1	0	0	0	0	1	19769,9209	4,20005465	4,1993413	0,0026117395438180534	0,078352187263166694	0,000329027564	0,58430610718367552	-0,021801246466939373	0,58430610718367552
3	1	0	1	0	0	1	20969,9209	0	4,20140028	0	0	0	0,60990230078304218	-0,022756274864580054	0,60990230078304218
3	1	0	1	0	0	1	21749,9209	0	4,20334435	0	0	0	0,60990230078304218	-0,022756274864580054	0,60990230078304218

File: Al_Struktur_01_03_PEIS_C03.mpt
EC-Lab ASCII FILE
Nb header lines : 65

Potentio Electrochemical Impedance Spectroscopy

Run on channel : 3 (SN 6987)
Grouped channel(s) : 3
User :
CE vs. WE compliance from -10 V to 10 V
Electrode connection : standard
Ewe ctrl range : min = -10,00 V, max = 10,00 V
Acquisition started on : 03.11.2015 16:50:59
Saved on :
	File : Al_Struktur_01_03_PEIS_C03.mpr
	Directory : C:\Hupfer\Studenten Batterietests\SemArbeitToph\
	Host : 192.168.0.2
Device : VMP3 (SN 0324)
Address : 192.168.0.1
EC-Lab for windows v10.33 (software)
Internet server v10.33 (firmware)
Command interpretor v10.32 (firmware)
Electrode material :
Initial state :
Electrolyte :
Comments :
Mass of active material : 0,001 mg
 at x = 0,000
Molecular weight of active material (at x = 0) : 0,001 g/mol
Atomic weight of intercalated ion : 0,001 g/mol
Acquisition started at : xo = 0,000
Number of e- transfered per intercalated ion : 1
for DX = 1, DQ = 26,801 mA.h
Battery capacity : 0,000 A.h
Electrode surface area : 0,001 cm²
Characteristic mass : 0,001 g
Multi Sine          0
E (V)               0,0000
vs.                 Eoc
tE (h:m:s)          0:00:0,0000
record              0
dI                  0,000
unit dI             mA
dt (s)              0,000
fi                  1,000
unit fi             MHz
ff                  500,000
unit ff             mHz
Sel Nd              1
Nd                  6
Nt                  51
Log                 1
Va (mV)             10,0
pw                  0,10
Na                  2
E range min (V)     -10,000
E range max (V)     10,000
I Range             Auto
Bandwidth           5
corr                0
nc cycles           0
goto Ns'            0
nr cycles           0
inc. cycle          0

freq/Hz	Re(Z)/Ohm	-Im(Z)/Ohm	|Z|/Ohm	Phase(Z)/deg	time/s	<Ewe>/V	<I>/mA	Cs/µF	Cp/µF	cycle number	I Range	|Ewe|/V	|I|/A	Re(Y)/Ohm-1	Im(Y)/Ohm-1	|Y|/Ohm-1	Phase(Y)/deg
1000024,25	20,8583813	-3,37866306	21,130249	9,20091724	22353,3657	4,20268631	0,00945970695	-0,0471047536	-0,00120432931	1	10	0,000601351901	2,84592898E-005	0,0467166156	-0,00756720779	0,047325518	-9,20091724
675622,438	18,1501007	-2,10833049	18,2721424	6,6258297	22354,5977	4,20312691	0,0118596321	-0,111731954	-0,00148756453	1	10	0,00234315055	0,000128236221	0,0543625839	-0,00631480245	0,0547281206	-6,6258297
456457,438	17,9473095	-0,839894652	17,9669514	2,67936182	22355,8297	4,20330143	0,012721152	-0,41514042	-0,000907185022	1	10	0,00758495182	0,000422161305	0,0555968992	-0,00260181283	0,0556577444	-2,67936182
308398,406	17,9540672	0,0115134325	17,954071	-0,0367421471	22356,1437	4,20328999	0,0135136675	44,8232346	1,84326145E-005	1	10	0,0108134709	0,000602285203	0,0556976646	3,57173267E-005	0,0556976758	0,0367421471
208361,797	18,1465092	0,692292035	18,1597099	-2,18478298	22356,5597	4,20331955	0,013058668	1,10334849	0,00160351698	1	10	0,0101172933	0,000557128573	0,0550269298	0,0020992856	0,0550669581	2,18478298
140771,469	18,4432926	1,29339528	18,4885883	-4,01148367	22356,9757	4,20333862	0,0138605069	0,874126375	0,00427788636	1	10	0,0101424539	0,000548579148	0,0539549068	0,00378376176	0,0540874191	4,01148367
95104,9688	18,8418217	1,88666916	18,9360447	-5,71808052	22357,2897	4,20335484	0,0137859173	0,886995018	0,00880509708	1	10	0,0108699277	0,000574033707	0,0525465682	0,00526159257	0,052809339	5,71808052
64257,8047	19,3437195	2,46817088	19,5005474	-7,27139044	22357,6037	4,2033515	0,0130996928	1,0035038	0,0160759222	1	10	0,0105372053	0,000540354347	0,0508681983	0,0064905514	0,0512806103	7,27139044
43408,1992	19,9347878	3,07968283	20,1712723	-8,78207588	22357,9177	4,20335531	0,013860506	1,19053566	0,0277515855	1	10	0,010385748	0,000514878193	0,0489942431	0,00756901596	0,0495754555	8,78207588
29333,4883	20,7045403	3,73577118	21,038868	-10,227973	22358,2317	4,20335627	0,0137038687	1,45236623	0,0457922444	1	10	0,0101819774	0,000483960321	0,046775762	0,00843986589	0,0475310758	10,227973
19812,0098	21,5956535	4,50552654	22,0606441	-11,7846432	22358,4437	4,20335913	0,0138250766	1,7829783	0,0743705109	1	10	0,0109900162	0,000498172943	0,0443741418	0,00925782975	0,0453295931	11,7846432
13391,1094	22,7223949	5,39657736	23,3544483	-13,360239	22358,7577	4,20335865	0,0142241316	2,20234418	0,117593348	1	10	0,0101622231	0,000435130089	0,041659575	0,00989416521	0,0428183936	13,360239
9040,93652	24,1605396	6,34691	24,9802914	-14,7188816	22359,0329	4,20341301	0,0156152267	2,77360368	0,179049894	1	10	0,0102851596	0,000411730958	0,0387178883	0,0101710865	0,0400315598	14,7188816
6110,23389	25,9576092	7,31378555	26,9682941	-15,735651	22359,4182	4,20339394	0,0130325584	3,56139445	0,261937439	1	10	0,00952870678	0,00035332999	0,0356909186	0,0100562321	0,0370805822	15,735651
4131,0332	28,1652527	8,15629578	29,3224602	-16,1503372	22359,8710	4,20340633	0,0133868596	4,72354984	0,365471572	1	10	0,00979841873	0,000334160868	0,0327576585	0,00948619749	0,03410355	16,1503372
2787,32349	30,7052155	8,66507721	31,9044476	-15,7591791	22360,3220	4,20340919	0,0131276594	6,58961964	0,486074388	1	10	0,0100610042	0,000315348007	0,0301654432	0,00851275213	0,0313435942	15,7591791
1883,19141	33,3524475	8,78978252	34,4912453	-14,7641621	22360,7730	4,20340681	0,0131369829	9,61496162	0,624433279	1	10	0,0101793017	0,000295127131	0,0280356072	0,00738856988	0,0289928652	14,7641621
1273,77686	36,0834999	8,5140295	37,0743523	-13,2763147	22361,4690	4,20339203	7,15185161E-005	14,675458	0,773953378	1	11	0,0103305811	0,000278644962	0,0262519456	0,00619423948	0,0269728247	13,2763147
859,17511	38,3892021	7,9094224	39,1955338	-11,6418848	22361,9200	4,20339251	1,20235936E-005	23,4203663	0,953696191	1	11	0,0103088561	0,000263010996	0,0249882545	0,00514839171	0,0255131107	11,6418848
580,929382	40,37854	7,21962261	41,0188904	-10,1372795	22362,3705	4,20339632	8,08431796E-005	37,947422	1,17555642	1	11	0,0102970339	0,00025103151	0,0239984281	0,00429088296	0,0243790112	10,1372795
392,612793	42,0288239	6,49360514	42,5275078	-8,78295708	22362,8240	4,2033968	8,11236459E-005	62,4266167	1,45546484	1	11	0,0102836378	0,000241811431	0,0232384615	0,00359042617	0,0235141926	8,78295708
265,424622	43,3863716	5,86578465	43,7811012	-7,69963312	22363,2745	4,20339584	5,65981973E-005	102,223984	1,83498144	1	11	0,010276028	0,000234713792	0,0226349737	0,00306022097	0,0228409059	7,69963312
179,368607	44,5124626	5,3886323	44,8374481	-6,90257788	22363,7275	4,20339775	6,98400472E-005	164,662659	2,37832093	1	11	0,0102746347	0,000229152967	0,0221411344	0,00268038246	0,0223027859	6,90257788
121,124016	45,4304123	5,22587919	45,7299919	-6,56191635	22364,1750	4,2033968	1,1557202E-005	251,437759	3,28357553	1	11	0,0102707613	0,000224595744	0,0217242315	0,00249894755	0,0218674876	6,56191635
81,8062515	46,2426033	5,36408186	46,5526772	-6,61666489	22364,6164	4,20339346	-5,41473219E-006	362,69223	4,81548119	1	11	0,0102702957	0,000220616654	0,0213379618	0,00247517601	0,0214810409	6,61666489
55,2297401	47,014061	5,93414736	47,3870888	-7,19387007	22365,0660	4,20339203	4,11180845E-005	485,611359	7,61527205	1	11	0,0102630965	0,000216580025	0,0209366772	0,00264264154	0,0211027954	7,19387007
37,3548431	47,8915405	6,99424219	48,3995781	-8,30892849	22365,4902	4,20339203	-5,60140779E-006	609,161621	12,7212782	1	11	0,0102655515	0,000212100029	0,0204444602	0,00298577803	0,0206613373	8,30892849
25,2341652	48,9579697	8,59384441	49,7065086	-9,95599365	22365,9380	4,20339537	0,000125231512	733,911499	21,9377537	1	11	0,010266073	0,000206533776	0,0198151283	0,0034782514	0,0201180894	9,95599365
17,0330601	50,2809525	10,9540758	51,4603348	-12,2902689	22366,3389	4,20338964	-0,000389520719	853,005249	38,650753	1	11	0,0102669094	0,000199511123	0,0189870838	0,0041364762	0,0194324423	12,2902689
11,5228605	52,1197052	14,0468979	53,9794312	-15,0835238	22366,7343	4,20338488	-0,000320047955	983,285034	66,586113	1	11	0,0102667762	0,000190197927	0,0178873222	0,00482085207	0,0185255744	15,0835238
7,77362823	54,3165398	18,3642216	57,3369942	-18,6802063	22367,3071	4,2033906	2,46779309E-005	1114,86902	114,366554	1	11	0,010270006	0,000179116571	0,0165219866	0,00558602298	0,0174407475	18,6802063
5,25033522	57,5730133	23,8343105	62,3115273	-22,4887753	22367,7393	4,20338058	-0,000282841269	1271,83411	186,079651	1	11	0,0102639701	0,000164720244	0,0148279853	0,00613854965	0,0160483941	22,4887753
3,54791069	60,8470802	31,0941353	68,3316345	-27,0679874	22368,3617	4,20339346	1,61588359E-005	1442,67651	298,732391	1	11	0,0102654947	0,00015023048	0,0130315516	0,00665939692	0,0146345105	27,0679874
2,39647198	65,8618546	41,4791756	77,8351212	-32,2023392	22369,7293	4,20340776	-0,00105982006	1601,09705	454,701782	1	12	0,010270399	0,000131950699	0,0108713312	0,00684666261	0,0128476704	32,2023392
1,62219644	73,0602798	54,8481522	91,3571243	-36,8964615	22371,0525	4,20340776	-0,00105298008	1788,77075	644,753662	1	12	0,0102702379	0,000112418573	0,00875379704	0,00657169148	0,010946054	36,8964615
1,09602952	84,9086304	74,0467453	112,66053	-41,090889	22372,9965	4,20340586	-0,00100009935	1961,06458	847,149902	1	12	0,0102690868	9,11507086E-005	0,00668972451	0,0058339457	0,00887622312	41,090889
0,739819586	102,725197	98,2885971	142,172836	-43,7356224	22375,8631	4,20340776	-0,000962205522	2188,72485	1046,07825	1	12	0,010267172	7,22161276E-005	0,00508210622	0,00486261491	0,00703369221	43,7356224
0,499264985	132,632614	124,054001	181,606186	-43,0858536	22380,0979	4,2034111	-0,000877081475	2569,67529	1199,05347	1	12	0,010269329	5,65472437E-005	0,00402150955	0,0037614	0,00550642051	43,0858536