Folder: thesis/Experimentelles/Rohdaten/Batterietests/AlteZelle/Studenten_Batterietests/SemArbeitToph/ECLab-Export (part 3)

File: Al_Sand_01_01_GCPL_C02.mpt
EC-Lab ASCII FILE
Nb header lines : 68

Galvanostatic Cycling with Potential Limitation

Run on channel : 2 (SN 6986)
Grouped channel(s) : 2
User :
CE vs. WE compliance from -10 V to 10 V
Electrode connection : standard
Ewe ctrl range : min = -10,00 V, max = 10,00 V
Acquisition started on : 03.11.2015 16:05:34
Saved on :
	File : Al_Sand_01_01_GCPL_C02.mpr
	Directory : C:\Hupfer\Studenten Batterietests\SemArbeitToph\
	Host : 192.168.0.2
Device : VMP3 (SN 0324)
Address : 192.168.0.1
EC-Lab for windows v10.33 (software)
Internet server v10.33 (firmware)
Command interpretor v10.32 (firmware)
Electrode material :
Initial state :
Electrolyte :
Comments :
Mass of active material : 0,001 mg
 at x = 0,000
Molecular weight of active material (at x = 0) : 0,001 g/mol
Atomic weight of intercalated ion : 0,001 g/mol
Acquisition started at : xo = 0,000
Number of e- transfered per intercalated ion : 1
for DX = 1, DQ = 26,801 mA.h
Battery capacity : 0,000 A.h
Electrode surface area : 0,001 cm²
Characteristic mass : 0,001 g
Ns                  0                   1
Set I/C             I                   I
Is                  0,000               100,000
unit Is             mA                  µA
vs.                 <None>              <None>
N                   1                   1
I sign              > 0                 > 0
t1 (h:m:s)          0:00:0,0000         10:00:0,0000
I Range             1 A                 1 A
Bandwidth           5                   5
dE1 (mV)            0,00                10,00
dt1 (s)             0,0000              10,0000
EM (V)              0,000               4,200
tM (h:m:s)          0:00:0,0000         1:00:0,0000
Im                  0,000               0,000
unit Im             mA                  mA
E range min (V)     -10,000             -10,000
E range max (V)     10,000              10,000
dq                  0,000               1,000
unit dq             mA.h                mA.h
dtq (s)             0,0000              120,0000
dQM                 0,000               0,000
unit dQM            mA.h                mA.h
dxM                 0,000               0,000
tR (h:m:s)          0:00:0,0000         0:15:0,0000
dER/dt (mV/h)       0,0                 0,1
dER (mV)            0,00                5,00
dtR (s)             1,0000              120,0000
EL (V)              pass                4,200
goto Ns'            0                   0
nc cycles           0                   0

mode	ox/red	error	control changes	Ns changes	counter inc.	Ns	time/s	control/V/mA	Ewe/V	dq/mA.h	<I>/mA	P/W	(Q-Qo)/mA.h	x	Capacity/mA.h
1	1	1	1	1	0	1	0,0004	0,100000001	1,6743058	0	0	0	0	0	0
1	1	0	1	0	0	1	29,5554	0,100000001	2,03752017	0,00011552554944281776	0,19714258082122643	0,000401681988	0,0016328732858207075	-6,0924697715452787E-005	0,0016328732858207075
1	1	0	1	0	0	1	98,3754	0,100000001	2,40025759	7,8270643522135078E-005	0,20118115364694016	0,000482886593	0,0054172187045446291	-0,00020212371339457229	0,0054172187045446291
1	1	0	1	0	0	1	145,6380	0,100000001	2,76379609	5,1800532167570458E-005	0,20086376617210598	0,000555146486	0,0080351903894849958	-0,00029980375686006368	0,0080351903894849958
1	1	0	1	0	0	1	194,5966	0,100000001	3,12645721	6,1705323947800525E-005	0,19915651051083862	0,000622654334	0,010749683927165763	-0,00040108516042631059	0,010749683927165763
1	1	0	1	0	0	1	205,7950	0,100000001	2,90163946	1,3775514228476419E-005	0,2011024025762801	0,000583526678	0,011375182775870176	-0,00042442336346361875	0,011375182775870176
1	1	0	1	0	0	1	233,1712	0,100000001	3,204391	6,0035212639305318E-005	0,20161079380720208	0,000646039785	0,012902709166591158	-0,00048141742688249389	0,012902709166591158
1	1	0	1	0	0	1	294,8820	0,100000001	3,56749105	9,555479581322935E-005	0,1999519144488071	0,000713326677	0,016345809579314045	-0,00060988413257892454	0,016345809579314045
1	1	0	1	0	0	1	371,2872	0,100000001	3,93017125	0,00019540890124585066	0,20024823861550282	0,000787009893	0,020613246685558099	-0,00076910794864310208	0,020613246685558099
1	1	0	1	0	0	1	570,2958	0,100000001	3,9367516	9,8967850911948429E-007	0,20015970353006298	0,00078797905	0,031648681507695258	-0,00118085485915696	0,031648681507695258
1	1	0	1	0	0	1	700,8662	0,100000001	4,02647257	0,00055310413108641894	0,19911749222124176	0,000801741146	0,038882309086507411	-0,0014507512298381587	0,038882309086507411
1	1	0	1	0	0	1	730,1646	0,100000001	3,74838281	9,6934046418302592E-006	0,1982741908644463	0,00074320758	0,040503438188614336	-0,0015112377362690272	0,040503438188614336
1	1	0	1	0	0	1	785,2728	0,100000001	4,00514889	4,756049235289296E-005	0,20243293544069459	0,000810774043	0,043566606811035418	-0,0016255286760455731	0,043566606811035418
1	1	0	1	0	0	1	839,5112	0,100000001	3,78401184	2,8088730242517261E-009	0,050559715713776915	0,00019131857	0,046569067799051616	-0,0017375545323601898	0,046569072783625798
1	1	0	1	0	0	1	925,0006	0,100000001	3,99761462	1,2546112827128835E-006	0,19637394486370922	0,00078502734	0,0513197763304752	-0,0019148098550631571	0,051319781315049382
1	1	0	1	0	0	1	1070,6990	0,100000001	3,76949716	7,4236103230052518E-007	0,20246210483294803	0,000763180316	0,059411039687841549	-0,0022167057697457811	0,059411044672415731
1	1	0	1	0	0	1	1071,3936	0,100000001	3,80611801	4,3971382896933293E-006	0,19639824122565507	0,000747514889	0,059448943367792013	-0,0022181200070067728	0,059448950509649306
1	1	0	1	0	0	1	1149,9598	0,100000001	4,0299058	0,00054780509105117786	0,19720983776036355	0,000794737076	0,063775327311184794	-0,0023795432088198346	0,063775334453042099
1	1	0	1	0	0	1	1181,6918	0,100000001	3,62219334	9,6040063682529677E-007	0,20101409185543078	0,000728111889	0,065528382555963366	-0,002444952057010368	0,065528389697820672
1	1	0	1	0	0	1	1184,0748	0,100000001	3,93656087	1,3526679978188541E-005	0,19416287540528077	0,000764333992	0,065658383026303219	-0,0024498025493462397	0,06565841211644841
1	1	0	1	0	0	1	1469,4624	0,100000001	4,03780222	0,00055021535171940922	0,19807753162284662	0,000799797883	0,081496773307802509	-0,0030407541856911936	0,081496802397947699
1	1	0	1	0	0	1	1829,4624	0,100000001	4,04468775	0,00055755074379344781	0,20071827283621126	0,000811842736	0,10152054048085104	-0,0037878678611589299	0,10152056957099621
1	1	0	1	0	0	1	2189,4623	0,100000001	4,04674768	0,00054917420441388256	0,19770271858338848	0,000800053007	0,12151511063016402	-0,0045338921564152768	0,1215151397203092
1	1	0	1	0	0	1	2549,4623	0,100000001	4,0550828	0,00054900598086416723	0,19764215810396109	0,000801455288	0,14147274265109949	-0,0052785382404380166	0,14147277174124467
1	1	0	1	0	0	1	2909,4623	0,100000001	4,06412363	0,00056466313396559814	0,2032787333628681	0,000826149888	0,1615879696822384	-0,006029064406180192	0,16158799877238358
1	1	0	1	0	0	1	3269,4623	0,100000001	4,06984568	0,00054966191118086374	0,19787829302393709	0,00080533413	0,18155232251223699	-0,0067739612526253005	0,18155235160238218
1	1	0	1	0	0	1	3629,4623	0,100000001	4,08157587	0,00055427780766950714	0,19954001580182736	0,000814437692	0,20148571586520874	-0,0075177029593570803	0,20148574495535392
1	1	0	1	0	0	1	3989,4623	0,100000001	4,09340143	0,0005550867649229865	0,19983124042043686	0,000817989465	0,2214735924183816	-0,0082634775075418035	0,22147362150852678
[...]
2	1	0	0	0	0	1	11325,7284	4,19985914	4,19969749	0,0051535410069679949	0,15460623208088739	0,000649299414	0,49993938061502157	-0,018653410466392614	0,49993940970516678
3	1	0	1	0	0	1	14902,3706	0	4,16605186	0	0	0	0,59141882780760192	-0,022066631636572656	0,59141885689774707
2	1	0	0	0	0	1	18226,5039	4,19985914	4,19969749	0,0024862308453351594	0,074586926263093133	0,000313242519	0,64681001045550899	-0,02413335113540321	0,64681003954565414
2	1	0	0	0	0	1	21287,3779	4,19985914	4,19952583	0,0023171679741743075	0,069515040066861261	0,000291930221	0,69058760421471194	-0,025766752018159885	0,69058763330485722
2	1	0	0	0	0	1	24947,3786	4,19985914	4,19956398	0,0021588728307548314	0,064766185706781683	0,000271989731	0,74182681803180531	-0,027678555977531309	0,74182684712195046
3	1	0	1	0	0	1	28934,7822	0	4,17986107	0	0	0	0,79780331721935334	-0,029767114423422323	0,79780334630949862
3	1	0	1	0	0	1	32691,4688	0	4,19454765	0	0	0	0,85782644109336691	-0,032006657877110131	0,85782647018351206
2	1	0	0	0	0	1	35747,3798	4,19985914	4,19956398	0,0020288208617778336	0,060864625739965811	0,000255604886	0,89541321466516851	-0,033409070935028589	0,89541324375531366
2	1	0	0	0	0	1	39287,3804	4,19985914	4,1996212	0,0022723926013369085	0,068171777913127424	0,000286295632	0,9430607413001824	-0,03518686421656185	0,94306077039032755
2	1	0	0	0	0	1	42827,3810	4,19985914	4,19965935	0,0023116667822553494	0,069350003338486029	0,000291246397	0,99169720903163302	-0,037001556220048621	0,99169723812177818
3	1	0	1	0	0	1	46807,3276	0	4,17974663	0	0	0	1,0525050178627974	-0,039270377324507866	1,0525050469529427
3	1	0	1	0	0	1	50687,3816	4,19985914	4,19971657	0	0	0	1,1175534662987717	-0,041697422394223149	1,1175534953889168
2	1	0	0	0	0	1	54347,3822	4,19985914	4,1996212	0,0020397780073500726	0,061193340106520704	0,00025698886	1,1673609690407541	-0,043555807288426182	1,1673609981308992
2	1	0	0	0	0	1	57887,3828	4,19985914	4,1996212	0,0021453018578140509	0,064359055614543437	0,000270283665	1,215400702320667	-0,045348234327208077	1,2154007314108122
2	1	0	0	0	0	1	61427,3834	4,19985914	4,19967842	0,0021766758957333322	0,065300276750368717	0,000274240156	1,263799744461849	-0,047154067662699821	1,2637997735519941
3	1	0	1	0	0	1	65087,3834	0,100000001	4,17457724	0	0	0	1,314693128528835	-0,049052968249121696	1,3146931576189802
3	1	0	1	0	0	1	68705,1489	0	4,18470573	0	0	0	1,3805523510434259	-0,051510264389807514	1,380552380133571
2	1	0	0	0	0	1	72228,0514	4,19985914	4,19958305	0,0021428534105345478	0,064285510388428621	0,000269972341	1,4289712243210408	-0,053316837651662822	1,4289712534111861
2	1	0	0	0	0	1	75648,0496	4,19985914	4,19944954	0,0022571086265408797	0,067713161973024781	0,000284358015	1,4759966275619088	-0,055071418672906701	1,4759966566520541
2	1	0	0	0	0	1	78828,6585	4,19985914	4,19965935	0,0022762037643776278	0,068286015289135488	0,000286777999	1,5182773655768429	-0,056648969855300755	1,5182773946669882
3	1	0	1	0	0	1	82412,1442	0	4,16544151	0	0	0	1,5797875952507459	-0,058943999225817434	1,5797876243408909
2	1	0	0	0	0	1	85849,6294	4,19985914	4,19964027	0,0022133051316510605	0,066399059005755482	0,000278852152	1,6312102728903984	-0,060862648467078285	1,6312103019805437
2	1	0	0	0	0	1	88310,3880	4,19985914	4,19967842	0,0022557744996137402	0,06767313819263488	0,000284205424	1,6607641741317309	-0,061965344258035226	1,6607642032218762
3	1	0	1	0	0	1	91954,9370	0	4,1621418	0	0	0	1,7146724502474054	-0,063976734520359155	1,7146724793375507
2	1	0	0	0	0	1	92781,8526	4,19985914	4,19960213	0,0016272463515935878	0,064536149319083034	0,000271026161	1,7274660658823139	-0,064454081520896755	1,7274660949724592

File: Al_Sand_01_Zyklieren_02_GCPL_C02.mpt
EC-Lab ASCII FILE
Nb header lines : 77

Galvanostatic Cycling with Potential Limitation

Run on channel : 2 (SN 6986)
Grouped channel(s) : 2
User :
CE vs. WE compliance from -10 V to 10 V
Electrode connection : standard
Ewe ctrl range : min = 0,00 V, max = 5,00 V
Acquisition started on : 03.16.2015 02:19:24
Saved on :
	File : Al_Sand_01_Zyklieren_02_GCPL_C02.mpr
	Directory : C:\Hupfer\Studenten Batterietests\SemArbeitToph\
	Host : 192.168.0.2
Device : VMP3 (SN 0324)
Address : 192.168.0.1
EC-Lab for windows v10.33 (software)
Internet server v10.33 (firmware)
Command interpretor v10.32 (firmware)
Electrode material :
Initial state :
Electrolyte :
Comments :
Mass of active material : 0,001 mg
 at x = 0,000
Molecular weight of active material (at x = 0) : 0,001 g/mol
Atomic weight of intercalated ion : 0,001 g/mol
Acquisition started at : xo = 0,000
Number of e- transfered per intercalated ion : 1
for DX = 1, DQ = 26,801 mA.h
Battery capacity : 0,000 A.h
Electrode surface area : 0,001 cm²
Characteristic mass : 0,001 g
Ns                  0                   1                   2
Set I/C             I                   I                   I
Is                  0,000               100,000             -100,000
unit Is             mA                  µA                  µA
vs.                 <None>              <None>              <None>
N                   1                   1                   1
I sign              > 0                 > 0                 > 0
t1 (h:m:s)          0:00:0,0000         4:00:0,0000         4:00:0,0000
I Range             1 A                 1 A                 1 A
Bandwidth           5                   5                   5
dE1 (mV)            0,00                10,00               10,00
dt1 (s)             0,0000              10,0000             10,0000
EM (V)              0,000               4,500               2,500
tM (h:m:s)          0:00:0,0000         0:00:0,0000         0:00:0,0000
Im                  0,000               0,000               0,000
unit Im             mA                  mA                  mA
E range min (V)     0,000               0,000               0,000
E range max (V)     5,000               5,000               5,000
dq                  0,000               1,000               1,000
unit dq             mA.h                mA.h                mA.h
dtq (s)             0,0000              120,0000            120,0000
dQM                 0,000               0,000               0,000
unit dQM            mA.h                mA.h                mA.h
dxM                 0,000               0,000               0,000
tR (h:m:s)          0:00:10,0000        0:05:0,0000         0:05:0,0000
dER/dt (mV/h)       0,0                 0,1                 0,1
dER (mV)            0,00                5,00                5,00
dtR (s)             1,0000              120,0000            120,0000
EL (V)              pass                4,200               3,500
goto Ns'            0                   0                   0
nc cycles           0                   0                   0

Modify on : 03.16.2015 11:52
Ns                  0                   1                   2
EM (V)                                  4,200

Number of loops : 3
Loop 0 from point number 0 to 2595
Loop 1 from point number 2596 to 5027
Loop 2 from point number 5028 to 23932

mode	ox/red	error	control changes	Ns changes	counter inc.	Ns	time/s	control/V/mA	Ewe/V	dq/mA.h	<I>/mA	P/W	(Q-Qo)/mA.h	x	Capacity/mA.h
3	1	0	0	0	0	0	600,0006	0	3,62960768	0	0	0	0	0	0
1	1	0	0	0	0	1	3612,7381	0,100000001	3,91841674	0,00057544463318669139	0,20716007318051251	0,000811739475	0,17270367695007485	-0,0064438063895705421	0,17270367695007485
1	1	0	0	0	0	1	6872,7381	0,100000001	4,1143961	0,00056948012100367078	0,20501284604345165	0,000843504036	0,36061853894005171	-0,013455162544635626	0,36061853894005171
1	1	0	0	0	0	1	10132,7380	0,100000001	4,47209787	0,00057736966153275635	0,20785308066830976	0,000929539325	0,54846483431317651	-0,020463960387037165	0,54846483431317651
1	0	0	1	0	0	2	13092,7834	-0,100000001	3,80897379	-1,7331170813128765E-005	-0,0062392215682658176	2,37650311E-005	0,57226355733549914	-0,02135192274072344	0,0031761906428099098
1	0	0	1	0	0	2	16352,7833	-0,100000001	3,61177421	-1,8412960704467776E-005	-0,0066286659338629402	2,39412439E-005	0,5685243398273536	-0,02121240750806312	0,0069387772594853798
1	0	0	1	0	0	2	19596,0627	-0,100000001	3,44575953	-7,2268062749644736E-006	-0,0026016502904858941	8,96466099E-006	0,56348903753682886	-0,021024533609567709	0,011974224047379182
1	0	0	1	0	0	2	22856,0627	-0,100000001	3,25790596	-2,1938586196357693E-005	-0,0078978911263100659	2,57305874E-005	0,55820915975529453	-0,020827534270667482	0,017254101828913616
1	1	0	0	0	0	1	25606,9528	0,100000001	3,47492266	1,5079919741385514E-006	0,20106559892199411	0,000698687392	0,55390867895101146	-0,020667077549801747	1,5136281342970003E-006
1	1	0	0	0	0	1	28591,8606	0,100000001	3,97113562	0,00058483652141731635	0,21054115025929635	0,000836087449	0,72559622417351488	-0,02707297069841296	0,17168905885063754
1	1	0	0	0	0	1	31851,8606	0,100000001	4,32693052	0,00055576107245849235	0,20007398850739171	0,000865706243	0,91103011675590221	-0,033991758549182035	0,35712295143302458
1	0	0	1	0	0	2	34771,7090	-0,100000001	3,88780403	-1,5105743720842941E-005	-0,0054380677293742682	2,11421411E-005	1,0085314167869088	-0,037629663145231014	0,0018435340988561517
1	0	0	1	0	0	2	38031,7090	-0,100000001	3,57690811	-3,4576551681901843E-005	-0,01244755858229928	4,45237747E-005	1,000284962741879	-0,037321976857335571	0,010089988143885568
1	0	0	1	0	0	2	41291,7090	-0,100000001	3,39464283	-3,4465934671759085E-005	-0,012407736458722061	4,21198347E-005	0,99103553308846285	-0,036976868200976179	0,019339417797302275
1	0	0	1	0	0	2	44550,7110	-0,100000001	3,2202549	-2,9886792397605152E-005	-0,0107592452430972	3,46475135E-005	0,98232513456887117	-0,036651871520954842	0,02804981631689343
1	0	0	1	0	0	2	47805,8824	-0,100000001	3,02015615	-2,4284526089917763E-005	-0,0087424293760863514	2,64035025E-005	0,97495470105005069	-0,036376870736714394	0,035420249835713402
1	1	0	0	0	0	1	50083,0338	0,100000001	3,90836525	0,00056859800854863392	0,20469528269623354	0,000800023903	1,0586590218503696	-0,039499991487430547	0,08487497611096023
1	1	0	0	0	0	1	53343,0338	0,100000001	4,10287571	0,00057272407770281037	0,2061806675889703	0,000845933624	1,2466661689149763	-0,046514790922708672	0,27288212317556698
1	1	0	0	0	0	1	55568,4984	0,100000001	4,03119802	2,5485369607806208E-005	0,20710458338049341	0,000834879582	1,3062378332035146	-0,048737489812268518	0,33245378746410445
3	1	0	1	0	0	1	57073,9528	0	4,00789022	0	0	0	1,3224630676694202	-0,049342875125251213	0,34867902193000947
3	1	0	0	0	0	1	58773,2102	0	4,0881319	0	0	0	1,3350838173704016	-0,049813772265373274	0,36129977163099168
1	1	0	0	0	0	1	60439,5474	0,100000001	4,16658068	0,00012169837124024829	0,20746005097119939	0,000864399015	1,3449252451467283	-0,050180969167648403	0,37114119940731763
3	1	0	1	0	0	1	61863,3166	0	3,96730185	0	0	0	1,353668212878685	-0,050507181048772838	0,37988416713927405
3	1	0	0	0	0	1	63455,0068	0	4,09818363	0	0	0	1,362932382720153	-0,050852839681366835	0,38914833698074099
[...]
3	1	0	0	0	0	1	97697,0428	0	4,14617205	0	0	0	1,5044334087179523	-0,056132433211497587	0,5306493629785385
1	1	0	0	0	0	1	99267,0710	0,100000001	4,03703403	2,5885861064824797E-005	0,20894422022105981	0,000843514921	1,5085409089359203	-0,056285689567222746	0,53475686319650694
3	1	0	1	0	0	1	100568,2953	0	4,0305686	0	0	0	1,5133587691790694	-0,056465450410576634	0,53957472343965549
3	1	0	0	0	0	1	102135,1960	0	4,12622118	0	0	0	1,518195786256097	-0,056645926021159162	0,54441174051668326
1	1	0	0	0	0	1	103706,2738	0,100000001	4,13972521	4,6229860972613094E-005	0,2069994272502272	0,000856920728	1,5224408383694966	-0,05680431462304336	0,54865679263008282
1	1	0	1	0	0	1	105279,5318	0,100000001	3,98986578	2,5496586743328307E-006	0,20672913665696605	0,000824821531	1,526680466504431	-0,056962500848998426	0,55289642076501786
3	1	0	0	0	0	1	106584,5099	0	4,01576757	0	0	0	1,5312639844817254	-0,057133518067336742	0,55747993874231315
3	1	0	1	0	0	1	108145,0433	0	4,08572865	0	0	0	1,5358127203467018	-0,057303237518299424	0,56202867460728864
3	1	0	0	0	0	1	109713,8962	0	4,15156984	0	0	0	1,540186271442424	-0,057466420589982803	0,56640222570301114
1	1	0	0	0	0	1	111281,2686	0,100000001	4,14497042	5,0045804540730189E-005	0,20408352818288662	0,000845920178	1,5441119877313005	-0,057612894342902477	0,57032794199188666
1	1	0	1	0	0	1	112848,5862	0,100000001	4,05458164	2,613364242762327E-005	0,20934832022648224	0,000848819851	1,548039826432784	-0,057759447285890125	0,57425578069336947
3	1	0	0	0	0	1	114352,0527	0	3,96528006	0	0	0	1,5520088515169885	-0,057907536948192781	0,57822480577757427
3	1	0	1	0	0	1	115719,7703	0	4,01143789	0	0	0	1,5561277787947654	-0,058061219662883264	0,58234373305535066
3	1	0	0	0	0	1	117272,3674	0	4,05646992	0	0	0	1,5601834807113046	-0,05821254335433856	0,58639943497188992
3	1	0	1	0	0	1	118836,0472	0	4,09251881	0	0	0	1,5642520985768013	-0,05836434895721513	0,59046805283738611
3	1	0	0	0	0	1	120403,0038	0	4,10646152	0	0	0	1,5682433600519674	-0,058513268289161715	0,5944593143125536
3	1	0	1	0	0	1	121971,8643	0	4,10125446	0	0	0	1,5721848983184147	-0,058660332381337434	0,59840085257900019
3	1	0	0	0	0	1	123539,9101	0	4,09742069	0	0	0	1,5760520123947744	-0,05880461960691657	0,60226796665535782
3	1	0	0	0	0	1	124804,2908	0	4,05275059	0	0	0	1,5791721718352109	-0,058921036950738253	0,60538812609579456
3	1	0	1	0	0	1	126373,6328	0	4,04214573	0	0	0	1,5829237229515741	-0,059061012366903872	0,60913967721215578
3	1	0	0	0	0	1	127945,4818	0	4,02728796	0	0	0	1,5865949556129517	-0,059197990993524698	0,6128109098735328
3	1	0	1	0	0	1	129532,6015	0	4,00151968	0	0	0	1,5902860581632182	-0,059335710992415283	0,61650201242379866
3	1	0	0	0	0	1	131344,4200	0,100000001	3,99618483	0	0	0	1,5937988147153066	-0,05946677666232512	0,62001476897588698
1	1	0	1	0	0	1	132907,7806	0,100000001	4,04809666	2,1753427177253696E-005	0,20362019083519955	0,000824274204	1,5974019162839376	-0,059601213226272333	0,62361787054451699
1	1	0	0	0	0	1	134472,1236	0,100000001	4,10936069	3,0171303213470509E-005	0,2061819938954144	0,000847276184	1,6010798169144723	-0,059738440643787571	0,62729577117505114
1	1	0	1	0	0	1	136039,5515	0,100000001	4,20043612	7,7766252951075622E-005	0,2025455557919672	0,000850779645	1,6049267265008195	-0,05988197401267913	0,63114268076139738
3	1	0	1	0	0	1	137603,0351	0	4,11264133	0	0	0	1,6082556196613379	-0,060006179492242534	0,63447157392191718
3	1	0	0	0	0	1	139184,1182	0	4,03205633	0	0	0	1,6115671448184973	-0,060129736948249075	0,63778309907907661
3	1	0	0	0	0	1	139933,6273	0	3,98576498	0	0	0	1,6128614942776259	-0,060178030866840525	0,63907744853820531