Folder: thesis/Experimentelles/Rohdaten/Batterietests/AlteZelle/Studenten_Batterietests/SemArbeitToph/ECLab-Export (part 2)

File: Al_rein_02_Laden_IS_01_GCPL_C01.mpt
EC-Lab ASCII FILE
Nb header lines : 68

Galvanostatic Cycling with Potential Limitation

Run on channel : 1 (SN 6985)
Grouped channel(s) : 1
User :
CE vs. WE compliance from -10 V to 10 V
Electrode connection : standard
Ewe ctrl range : min = -10,00 V, max = 10,00 V
Acquisition started on : 03.18.2015 16:28:12
Saved on :
	File : Al_rein_02_Laden_IS_01_GCPL_C01.mpr
	Directory : C:\Hupfer\Studenten Batterietests\SemArbeitToph\
	Host : 192.168.0.2
Device : VMP3 (SN 0324)
Address : 192.168.0.1
EC-Lab for windows v10.33 (software)
Internet server v10.33 (firmware)
Command interpretor v10.32 (firmware)
Electrode material :
Initial state :
Electrolyte :
Comments :
Mass of active material : 0,001 mg
 at x = 0,000
Molecular weight of active material (at x = 0) : 0,001 g/mol
Atomic weight of intercalated ion : 0,001 g/mol
Acquisition started at : xo = 0,000
Number of e- transfered per intercalated ion : 1
for DX = 1, DQ = 26,801 mA.h
Battery capacity : 0,000 A.h
Electrode surface area : 0,001 cm²
Characteristic mass : 0,001 g
Ns                  0                   1
Set I/C             I                   I
Is                  0,000               50,000
unit Is             mA                  µA
vs.                 <None>              <None>
N                   1                   1
I sign              > 0                 > 0
t1 (h:m:s)          0:00:0,0000         1:00:0,0000
I Range             100 mA              100 mA
Bandwidth           5                   5
dE1 (mV)            0,00                10,00
dt1 (s)             0,0000              10,0000
EM (V)              0,000               4,200
tM (h:m:s)          0:00:0,0000         0:00:0,0000
Im                  0,000               0,000
unit Im             mA                  mA
E range min (V)     -10,000             -10,000
E range max (V)     10,000              10,000
dq                  0,000               1,000
unit dq             mA.h                mA.h
dtq (s)             0,0000              120,0000
dQM                 0,000               0,000
unit dQM            mA.h                mA.h
dxM                 0,000               0,000
tR (h:m:s)          0:00:0,0000         0:00:0,0000
dER/dt (mV/h)       0,0                 0,1
dER (mV)            0,00                5,00
dtR (s)             1,0000              120,0000
EL (V)              pass                4,200
goto Ns'            0                   0
nc cycles           0                   0

mode	ox/red	error	control changes	Ns changes	counter inc.	Ns	time/s	control/V/mA	Ewe/V	dq/mA.h	<I>/mA	P/W	(Q-Qo)/mA.h	x	Capacity/mA.h
1	1	0	1	1	0	1	0,0004	0,0500000007	2,95759726	0	0	0	0	0	0
1	1	0	1	0	0	1	0,0500	0,0500000007	3,01516843	1,8483816335598627E-009	0,033270870244570406	0,00010031728	3,0961523039473427E-009	-1,155216052813217E-010	3,0961523039473427E-009
1	1	0	1	0	0	1	0,0504	0,0500000007	3,0665741	2,4136621505022048E-009	0,043445919806575936	0,000133230133	7,2522057841221491E-009	-2,7058954849997766E-010	7,2522057841221491E-009
1	1	0	1	0	0	1	0,0508	0,0500000007	3,10771489	2,1663519243399306E-009	0,038994335623198522	0,000121183279	1,1655569697419805E-008	-4,348849764908608E-010	1,1655569697419805E-008
1	1	0	1	0	0	1	0,0512	0,0500000007	3,14372301	2,3430020858844118E-009	0,042174038611325242	0,000132583489	1,669487419227759E-008	-6,2290820261095808E-010	1,669487419227759E-008
1	1	0	1	0	0	1	0,0516	0,0500000007	3,17580152	2,7316326482428442E-009	0,049169388910494438	0,000156152222	2,1946159087949331E-008	-8,1884070249610406E-010	2,1946159087949331E-008
1	1	0	1	0	0	1	0,0520	0,0500000007	3,2029078	2,9436128420962227E-009	0,052985032496246515	0,000169706167	2,765673440363672E-008	-1,0319099454745714E-009	2,765673440363672E-008
1	1	0	1	0	0	1	0,0524	0,0500000007	3,22738314	3,3675734367635514E-009	0,06061632339304105	0,000195632107	3,4003250921765965E-008	-1,2687070097481846E-009	3,4003250921765965E-008
1	1	0	1	0	0	1	0,0528	0,0500000007	3,24966693	3,0142729067140154E-009	0,054256913691497203	0,000176316898	3,9819816541340621E-008	-1,4857308934701651E-009	3,9819816541340621E-008
1	1	0	1	0	0	1	0,0532	0,0500000007	3,27055669	2,9789430813656909E-009	0,053620976819162253	0,000175370442	4,5919022626347014E-008	-1,713300472971551E-009	4,5919022626347014E-008
1	1	0	1	0	0	1	0,0540	0,0500000007	3,30773449	6,063876259658071E-009	0,054574887715600269	0,000180519244	5,8364745022522074E-008	-2,1776671090245725E-009	5,8364745022522074E-008
1	1	0	1	0	0	1	0,0548	0,0500000007	3,34095979	6,0285462273491763E-009	0,054256917416787597	0,000181270181	7,1305088284942835E-008	-2,6604887146220493E-009	7,1305088284942835E-008
1	1	0	1	0	0	1	0,0556	0,0500000007	3,36859012	6,4525062011347878E-009	0,05807255727724928	0,000195622648	8,4598731042610278E-008	-3,1564923994034022E-009	8,4598731042610278E-008
1	1	0	1	0	0	1	0,0564	0,0500000007	3,39312696	6,7704769058359987E-009	0,060934293691853722	0,000206757788	9,7892374421159437E-008	-3,6524961073506874E-009	9,7892374421159437E-008
1	1	0	1	0	0	1	0,0572	0,0500000007	3,4144752	7,0531173712677427E-009	0,063478057945000307	0,000216744258	1,121752587043577E-007	-4,1854097234989728E-009	1,121752587043577E-007
1	1	0	1	0	0	1	0,0580	0,0500000007	3,43609047	6,9471272743410534E-009	0,062524147048562291	0,000214838627	1,2596352315611312E-007	-4,6998684087126886E-009	1,2596352315611312E-007
1	1	0	1	0	0	1	0,0592	0,0500000007	3,46175408	1,04913500448068E-008	0,06294810185904361	0,000217910841	1,469108940412601E-007	-5,4814429804772166E-009	1,469108940412601E-007
1	1	0	1	0	0	1	0,0604	0,0500000007	3,4851644	1,0809320542547437E-008	0,064855924893683098	0,00022603356	1,6898882616725235E-007	-6,3052003121934362E-009	1,6898882616725235E-007
1	1	0	1	0	0	1	0,0618	0,0500000007	3,50867033	1,5236795362499027E-008	0,068565580863357888	0,000240574023	1,9507027272548944E-007	-7,278334150159113E-009	1,9507027272548944E-007
1	1	0	1	0	0	1	0,0634	0,0500000007	3,53106856	1,4671515052517254E-008	0,066021819404179085	0,000233127575	2,243426425589456E-007	-8,3705256257651853E-009	2,243426425589456E-007
1	1	0	1	0	0	1	0,0650	0,0500000007	3,55281758	1,4918825485640102E-008	0,067134716381346048	0,000238517401	2,5354435274170509E-007	-9,460080694800855E-009	2,5354435274170509E-007
1	1	0	1	0	0	1	0,0672	0,0500000007	3,57626629	2,1971943063868416E-008	0,0659158308567792	0,000235732557	2,9419132487641446E-007	-1,0976673875582131E-008	2,9419132487641446E-007
1	1	0	1	0	0	1	0,0696	0,0500000007	3,59707975	2,2855193664630253E-008	0,068565582726003072	0,000246635871	3,4011369239952832E-007	-1,2690099151149315E-008	3,4011369239952832E-007
1	1	0	1	0	0	1	0,0726	0,0500000007	3,61787415	3,0720901572042042E-008	0,069122030283263936	0,000250074809	3,968807098766169E-007	-1,480815289728623E-008	3,968807098766169E-007
1	1	0	1	0	0	1	0,0762	0,0500000007	3,63905025	3,4371115267276762E-008	0,068742232271128384	0,000250156445	4,6576426095432717E-007	-1,7378290802915034E-008	4,6576426095432717E-007
1	1	0	1	0	0	1	0,0816	0,0500000007	3,65986371	5,4141375753614637E-008	0,069610342013152538	0,000254764367	5,6873628724780358E-007	-2,1220315551286445E-008	5,6873628724780358E-007
1	1	0	1	0	0	1	0,0888	0,0500000007	3,68081093	7,6254638532797491E-008	0,068629176413236557	0,000252611033	7,0682135948704358E-007	-2,6372455253886672E-008	7,0682135948704358E-007
[...]
1	1	0	1	0	0	1	1,7156	0,0500000007	3,82301068	8,2525164683659866E-006	0,070035502207995136	0,00026774648	3,235183521918953E-005	-1,2070904695330312E-006	3,235183521918953E-005
1	1	0	1	0	0	1	2,6024	0,0500000007	3,8432703	1,3007850758731366E-005	0,070144194000021517	0,000269583106	4,9617876243467136E-005	-1,8513096745878829E-006	4,9617876243467136E-005
1	1	0	1	0	0	1	3,6312	0,0500000007	3,86339641	1,2506648801267146E-005	0,070174465121511898	0,000271111785	6,9677868859014579E-005	-2,599774970020879E-006	6,9677868859014579E-005
1	1	0	1	0	0	1	5,2856	0,0500000007	3,88380885	1,2926696467523773E-005	0,07010561684044375	0,000272276811	0,00010188402354593078	-3,8014299030252333E-006	0,00010188402354593078
1	1	0	1	0	0	1	6,6552	0,0500000007	3,90395403	1,6260343523282144E-005	0,070239066669775309	0,000274210091	0,00012859320505377318	-4,7979853759593011E-006	0,00012859320505377318
1	1	0	1	0	0	1	9,1522	0,0500000007	3,92425179	2,6885009769143331E-005	0,070063730718066419	0,000274947728	0,0001772087821366472	-6,6118979212599002E-006	0,0001772087821366472
1	1	0	1	0	0	1	10,9462	0,0500000007	3,94516063	1,628242933170663E-005	0,070115726166181171	0,000276617793	0,00021216565108568304	-7,9161857017585984E-006	0,00021216565108568304
1	1	0	1	0	0	1	13,2676	0,0500000007	3,96584058	1,5766966917862496E-005	0,070110032532374669	0,00027804522	0,0002573259565199001	-9,6011774161856666E-006	0,0002573259565199001
1	1	0	1	0	0	1	16,1914	0,0500000007	3,98615742	3,2758130948369702E-005	0,07025454211442569	0,000280045671	0,00031431802775917786	-1,1727628220777864E-005	0,00031431802775917786
1	1	0	1	0	0	1	18,8908	0,0500000007	4,00634098	2,375810194388032E-005	0,07008289836006039	0,000280775974	0,00036688800359268986	-1,3689084700210432E-005	0,00036688800359268986
1	1	0	1	0	0	1	22,6958	0,0500000007	4,02656221	3,2123041473536026E-005	0,070180211327901683	0,000282584981	0,00044108570529334246	-1,6457500710532714E-005	0,00044108570529334246
1	1	0	1	0	0	1	25,8070	0,0500000007	4,04678392	3,2563855340911283E-005	0,070256431852305254	0,000284312613	0,0005017867086047513	-1,8722336757448326E-005	0,0005017867086047513
1	1	0	1	0	0	1	28,7566	0,0500000007	4,06732988	3,5925870777211258E-005	0,070335620004998042	0,000286078168	0,00055939150757321869	-2,0871649257437786E-005	0,00055939150757321869
1	1	0	1	0	0	1	32,5682	0,0500000007	4,08743715	3,3357899890798662E-005	0,070218946696622861	0,000287015544	0,00063374587963997478	-2,3645910849764934E-005	0,00063374587963997478
1	1	0	1	0	0	1	36,4012	0,0500000007	4,10790682	4,4224348769833645E-005	0,070452101775964646	0,000289410673	0,00070869496160228211	-2,6442361867891059E-005	0,00070869496160228211
1	1	0	1	0	0	1	40,6160	0,0500000007	4,1280899	3,5493285944271418E-005	0,070407666204136064	0,000290649186	0,00079109035237919949	-2,951664467955897E-005	0,00079109035237919949
1	1	0	1	0	0	1	45,4418	0,0500000007	4,14861727	3,921708473025097E-005	0,070274518962393408	0,000291542092	0,00088531014805845914	-3,3032111936214739E-005	0,00088531014805845914
1	1	0	1	0	0	1	51,2486	0,0500000007	4,16916323	5,108846688270569E-005	0,070085544327380621	0,000292198063	0,00099839995345576755	-3,7251644626448806E-005	0,00099839995345576755
1	1	0	1	0	0	1	55,2124	0,0500000007	4,18942308	3,8830953918811347E-005	0,070360095449541773	0,000294768222	0,0010758435371820294	-4,014116885928137E-005	0,0010758435371820294
1	1	0	1	0	0	1	58,4748	0,0500000007	4,20024967	9,4423828025658931E-008	0,070817872808254131	0,00029745276	0,0011397395095270538	-4,2525213496522726E-005	0,0011397395095270538

File: Al_rein_02_Zyklieren_01_OCV_C01.mpt
EC-Lab ASCII FILE
Nb header lines : 46

Open Circuit Voltage

Run on channel : 1 (SN 6985)
Grouped channel(s) : 1
User :
CE vs. WE compliance from -10 V to 10 V
Electrode connection : standard
Ewe ctrl range : min = 0,00 V, max = 5,00 V
Acquisition started on : 03.16.2015 11:28:31
Saved on :
	File : Al_rein_02_Zyklieren_01_OCV_C01.mpr
	Directory : C:\Hupfer\Studenten Batterietests\SemArbeitToph\
	Host : 192.168.0.2
Device : VMP3 (SN 0324)
Address : 192.168.0.1
EC-Lab for windows v10.33 (software)
Internet server v10.33 (firmware)
Command interpretor v10.32 (firmware)
Electrode material :
Initial state :
Electrolyte :
Comments :
Mass of active material : 0,001 mg
 at x = 0,000
Molecular weight of active material (at x = 0) : 0,001 g/mol
Atomic weight of intercalated ion : 0,001 g/mol
Acquisition started at : xo = 0,000
Number of e- transfered per intercalated ion : 1
for DX = 1, DQ = 26,801 mA.h
Battery capacity : 0,000 A.h
Electrode surface area : 0,001 cm²
Characteristic mass : 0,001 g
tR (h:m:s)          0:10:0,0000
dER/dt (mV/h)       1,0
dER (mV)            1,00
dtR (s)             0,5000
E range min (V)     0,000
E range max (V)     5,000

Number of loops : 1
Loop 0 from point number 0 to 1200

mode	error	time/s	Ewe/V
3	0	0,0000	3,48486495
3	0	2,5000	3,48478842
3	0	5,0000	3,48484564
3	0	7,5000	3,48486495
3	0	10,0000	3,48486495
3	0	12,5000	3,48484564
3	0	15,0000	3,48471212
3	0	17,5000	3,48484564
3	0	20,0000	3,48486495
3	0	22,5000	3,48494124
3	0	25,0000	3,48463559
3	0	27,5000	3,48471212
3	0	30,0000	3,48480749
3	0	32,5000	3,48471212
3	0	35,0000	3,48497939
3	0	37,5000	3,48478842
3	0	40,0000	3,48492217
3	0	42,5000	3,4847312
3	0	45,0000	3,48471212
3	0	47,5000	3,48482656
3	0	50,0000	3,48478842
3	0	52,5000	3,48476934
3	0	55,0000	3,48475027
3	0	57,5000	3,48469305
3	0	60,0000	3,48484564
3	0	62,5000	3,48476934
3	0	65,0000	3,48471212
3	0	67,5000	3,48475027
3	0	70,0000	3,4846549
3	0	72,5000	3,4847312
3	0	75,0000	3,48461652
3	0	77,5000	3,48469305
3	0	80,0000	3,4846549
3	0	82,5000	3,48467398
3	0	85,0000	3,4846549
3	0	87,5000	3,48452115
3	0	90,0000	3,48446393
3	0	92,5000	3,48454022
3	0	95,0000	3,48459744
3	0	97,5000	3,48461652
3	0	100,0000	3,48459744
3	0	102,5000	3,48457837
3	0	105,0000	3,4845593
3	0	107,5000	3,48461652
3	0	110,0000	3,48461652
3	0	112,5000	3,48446393
3	0	115,0000	3,48457837
3	0	117,5000	3,48454022
3	0	120,0000	3,48446393
3	0	122,5000	3,48446393
3	0	125,0000	3,48446393
3	0	127,5000	3,48442554
3	0	130,0000	3,48444486
3	0	132,5000	3,48446393
3	0	135,0000	3,48440647
3	0	137,5000	3,48436832
3	0	140,0000	3,48446393
3	0	142,5000	3,4843111
3	0	145,0000	3,48429203
3	0	147,5000	3,48434925
3	0	150,0000	3,4843111
3	0	152,5000	3,484483
3	0	155,0000	3,4843874
3	0	157,5000	3,48427296
3	0	160,0000	3,4842155
3	0	162,5000	3,48427296
3	0	165,0000	3,48429203
3	0	167,5000	3,48415828
3	0	170,0000	3,48419642
3	0	172,5000	3,48434925
3	0	175,0000	3,48433018
3	0	177,5000	3,48423481
3	0	180,0000	3,48419642
3	0	182,5000	3,48434925
3	0	185,0000	3,48417735
3	0	187,5000	3,48429203
3	0	190,0000	3,48419642
3	0	192,5000	3,4843111
3	0	195,0000	3,48425388
3	0	197,5000	3,48434925
3	0	200,0000	3,48425388
3	0	202,5000	3,48417735
3	0	205,0000	3,48419642
3	0	207,5000	3,4842155
3	0	210,0000	3,48417735
3	0	212,5000	3,48423481
3	0	215,0000	3,48410106
3	0	217,5000	3,48410106
3	0	220,0000	3,48406291
3	0	222,5000	3,48419642
3	0	225,0000	3,48404384
3	0	227,5000	3,4841392
3	0	230,0000	3,48415828
3	0	232,5000	3,48404384
3	0	235,0000	3,48415828
3	0	237,5000	3,48410106
3	0	240,0000	3,48400545
3	0	242,5000	3,48406291
3	0	245,0000	3,48406291
3	0	247,5000	3,48410106
3	0	250,0000	3,48402476
3	0	252,5000	3,48394823
3	0	255,0000	3,48400545
3	0	257,5000	3,48394823
3	0	260,0000	3,48400545
3	0	262,5000	3,48417735
3	0	265,0000	3,4839673
3	0	267,5000	3,48402476
3	0	270,0000	3,48394823
3	0	272,5000	3,48410106
3	0	275,0000	3,48392916
3	0	277,5000	3,48383379
3	0	280,0000	3,4837954
3	0	282,5000	3,48385286
3	0	285,0000	3,48385286
3	0	287,5000	3,48400545
3	0	290,0000	3,48377633
3	0	292,5000	3,48375726
3	0	295,0000	3,4837954
3	0	297,5000	3,48385286
3	0	300,0000	3,48389101
3	0	302,5000	3,4837954
3	0	305,0000	3,48391008
3	0	307,5000	3,48385286
3	0	310,0000	3,48383379
3	0	312,5000	3,48385286
3	0	315,0000	3,48394823
3	0	317,5000	3,48370004
3	0	320,0000	3,48387194
3	0	322,5000	3,48385286
3	0	325,0000	3,48389101
3	0	327,5000	3,48370004
3	0	330,0000	3,48385286
3	0	332,5000	3,48398638
3	0	335,0000	3,48392916
3	0	337,5000	3,48371911
3	0	340,0000	3,48391008
3	0	342,5000	3,48383379
3	0	345,0000	3,48385286
3	0	347,5000	3,48381472
3	0	350,0000	3,48381472
3	0	352,5000	3,48377633
3	0	355,0000	3,48383379
3	0	357,5000	3,48373818
3	0	360,0000	3,48383379
3	0	362,5000	3,48366189
3	0	365,0000	3,48373818
3	0	367,5000	3,48383379
3	0	370,0000	3,48383379
3	0	372,5000	3,48370004
3	0	375,0000	3,48373818
3	0	377,5000	3,48364282
3	0	380,0000	3,48370004
3	0	382,5000	3,48371911
3	0	385,0000	3,48377633
3	0	387,5000	3,4835856
3	0	390,0000	3,48385286
3	0	392,5000	3,48366189
3	0	395,0000	3,48371911
3	0	397,5000	3,48373818
3	0	400,0000	3,48364282
3	0	402,5000	3,48387194
3	0	405,0000	3,48370004
3	0	407,5000	3,48370004
3	0	410,0000	3,48362374
3	0	412,5000	3,48348999
3	0	415,0000	3,4835856
3	0	417,5000	3,48354721
3	0	420,0000	3,48354721
3	0	422,5000	3,48366189
3	0	425,0000	3,48371911
3	0	427,5000	3,48352814
3	0	430,0000	3,48354721
3	0	432,5000	3,48352814
3	0	435,0000	3,48354721
3	0	437,5000	3,48347092
3	0	440,0000	3,48360467
3	0	442,5000	3,48354721
3	0	445,0000	3,48352814
3	0	447,5000	3,48348999
3	0	450,0000	3,48354721
3	0	452,5000	3,48347092
3	0	455,0000	3,48356628
3	0	457,5000	3,48335624
3	0	460,0000	3,48352814
3	0	462,5000	3,48348999
3	0	465,0000	3,48352814
3	0	467,5000	3,48352814
3	0	470,0000	3,48352814
3	0	472,5000	3,48345184
3	0	475,0000	3,48352814
3	0	477,5000	3,48333716
3	0	480,0000	3,48335624
3	0	482,5000	3,48322272
3	0	485,0000	3,48352814
3	0	487,5000	3,48335624
3	0	490,0000	3,48350906
3	0	492,5000	3,48327994
3	0	495,0000	3,48343277
3	0	497,5000	3,48362374
3	0	500,0000	3,48333716
3	0	502,5000	3,48343277
3	0	505,0000	3,4834137
3	0	507,5000	3,48352814
3	0	510,0000	3,48343277
3	0	512,5000	3,48339462
3	0	515,0000	3,48352814
3	0	517,5000	3,48347092
3	0	520,0000	3,48329902
3	0	522,5000	3,48335624
3	0	525,0000	3,48320365
3	0	527,5000	3,48333716
3	0	530,0000	3,48329902
3	0	532,5000	3,48322272
3	0	535,0000	3,48329902
3	0	537,5000	3,4831655
3	0	540,0000	3,48314619
3	0	542,5000	3,48312712
3	0	545,0000	3,48320365
3	0	547,5000	3,48318458
3	0	550,0000	3,4831655
3	0	552,5000	3,48326087
3	0	555,0000	3,48333716
3	0	557,5000	3,48326087
3	0	560,0000	3,48335624
3	0	562,5000	3,48312712
3	0	565,0000	3,4832418
3	0	567,5000	3,48320365
3	0	570,0000	3,48326087
3	0	572,5000	3,48308897
3	0	575,0000	3,48327994
3	0	577,5000	3,48333716
3	0	580,0000	3,48314619
3	0	582,5000	3,4830699
3	0	585,0000	3,48318458
3	0	587,5000	3,48312712
3	0	590,0000	3,48312712
3	0	592,5000	3,48305082
3	0	595,0000	3,4831655
3	0	597,5000	3,48314619
3	0	600,0000	3,48310804