Folder: thesis/Experimentelles/Rohdaten/Batterietests/AlteZelle/Studenten_Batterietests/SemArbeitToph/ECLab-Export (part 5)

File: Al_Struktur_01_Zyklieren_01_OCV_C03.mpt
EC-Lab ASCII FILE
Nb header lines : 46

Open Circuit Voltage

Run on channel : 3 (SN 6987)
Grouped channel(s) : 3
User :
CE vs. WE compliance from -10 V to 10 V
Electrode connection : standard
Ewe ctrl range : min = 0,00 V, max = 5,00 V
Acquisition started on : 03.16.2015 02:19:29
Saved on :
	File : Al_Struktur_01_Zyklieren_01_OCV_C03.mpr
	Directory : C:\Hupfer\Studenten Batterietests\SemArbeitToph\
	Host : 192.168.0.2
Device : VMP3 (SN 0324)
Address : 192.168.0.1
EC-Lab for windows v10.33 (software)
Internet server v10.33 (firmware)
Command interpretor v10.32 (firmware)
Electrode material :
Initial state :
Electrolyte :
Comments :
Mass of active material : 0,001 mg
 at x = 0,000
Molecular weight of active material (at x = 0) : 0,001 g/mol
Atomic weight of intercalated ion : 0,001 g/mol
Acquisition started at : xo = 0,000
Number of e- transfered per intercalated ion : 1
for DX = 1, DQ = 26,801 mA.h
Battery capacity : 0,000 A.h
Electrode surface area : 0,001 cm²
Characteristic mass : 0,001 g
tR (h:m:s)          0:10:0,0000
dER/dt (mV/h)       1,0
dER (mV)            1,00
dtR (s)             0,5000
E range min (V)     0,000
E range max (V)     5,000

Number of loops : 1
Loop 0 from point number 0 to 1202

mode	error	time/s	Ewe/V
3	0	0,0000	4,06582785
3	0	2,5000	4,06580877
3	0	5,0000	4,06586599
3	0	7,5000	4,06582785
3	0	10,0000	4,06565619
3	0	12,5000	4,06567526
3	0	15,0000	4,06559896
3	0	17,5000	4,06556082
3	0	20,0000	4,0654273
3	0	22,5000	4,06557989
3	0	25,0000	4,06561804
3	0	27,5000	4,0655036
3	0	30,0000	4,06557989
3	0	32,5000	4,06556082
3	0	35,0000	4,0655036
3	0	37,5000	4,06544638
3	0	40,0000	4,06538916
3	0	42,5000	4,06538916
3	0	45,0000	4,06538916
3	0	47,5000	4,06519842
3	0	50,0000	4,06538916
3	0	52,5000	4,06527472
3	0	55,0000	4,06525564
3	0	57,5000	4,06521749
3	0	60,0000	4,06516075
3	0	62,5000	4,0651226
3	0	65,0000	4,06510353
3	0	67,5000	4,06508446
3	0	70,0000	4,06508446
3	0	72,5000	4,06506538
3	0	75,0000	4,06500816
3	0	77,5000	4,06508446
3	0	80,0000	4,06504631
3	0	82,5000	4,06500816
3	0	84,8642	4,0660944
3	0	86,8644	4,06500816
3	0	89,3644	4,0649128
3	0	91,8644	4,0648365
3	0	94,3644	4,06489372
3	0	96,8644	4,06487465
3	0	99,3644	4,06485558
3	0	101,8644	4,06476021
3	0	104,3644	4,06477928
3	0	106,8644	4,0648365
3	0	109,3644	4,06468391
3	0	111,8644	4,06485558
3	0	114,3644	4,06477928
3	0	116,8644	4,06466484
3	0	119,3644	4,06462669
3	0	121,8644	4,06460762
3	0	124,3644	4,06468391
3	0	126,8644	4,06464577
3	0	129,3644	4,06449318
3	0	131,8644	4,06458855
3	0	134,3644	4,06456947
3	0	136,8644	4,06458855
3	0	139,3644	4,06460762
3	0	141,8644	4,06449318
3	0	144,3644	4,06449318
3	0	146,8644	4,06449318
3	0	149,3644	4,0645504
3	0	151,8644	4,06445503
3	0	154,3644	4,06430244
3	0	156,8644	4,06432152
3	0	159,3644	4,06443596
3	0	161,8644	4,06437874
3	0	164,3644	4,06422663
3	0	166,8644	4,06420755
3	0	169,3644	4,06447411
3	0	171,8644	4,06435966
3	0	174,3644	4,06411219
3	0	176,8644	4,06416941
3	0	179,3644	4,06416941
3	0	181,8644	4,06409311
3	0	184,3644	4,06416941
3	0	186,8644	4,06418848
3	0	189,3644	4,06401682
3	0	191,8644	4,06405497
3	0	194,3644	4,06405497
3	0	196,8644	4,0639596
3	0	199,3644	4,06399775
3	0	201,8644	4,06397867
3	0	204,3644	4,0638833
3	0	206,8644	4,06401682
3	0	209,3644	4,06382608
3	0	211,8644	4,06390238
3	0	214,3644	4,06376886
3	0	216,8644	4,0638833
3	0	219,3644	4,06384516
3	0	221,8644	4,06384516
3	0	224,3644	4,06369257
3	0	226,8644	4,06374979
3	0	229,3644	4,06392145
3	0	231,8644	4,06384516
3	0	234,3644	4,06363535
3	0	236,8644	4,06373072
3	0	239,3644	4,06369257
3	0	241,8644	4,06361628
3	0	244,3644	4,06353998
3	0	246,8644	4,06373072
3	0	249,3644	4,06365442
3	0	251,8644	4,06355906
3	0	254,3644	4,06352091
3	0	256,8644	4,06344461
3	0	259,3644	4,06346369
3	0	261,8644	4,06353998
3	0	264,3644	4,06346369
3	0	266,8644	4,06352091
3	0	269,3644	4,06348276
3	0	271,8644	4,06352091
3	0	274,3644	4,06331158
3	0	276,8644	4,06333017
3	0	279,3644	4,06348276
3	0	281,8644	4,06340647
3	0	284,3644	4,06342554
3	0	286,8644	4,06325436
3	0	289,3644	4,06327343
3	0	291,8644	4,06327343
3	0	294,3644	4,06323528
3	0	296,8644	4,06325436
3	0	299,3644	4,06327343
3	0	301,8644	4,06317806
3	0	304,3644	4,06319714
3	0	306,8644	4,06317806
3	0	309,3644	4,06298733
3	0	311,8644	4,06306362
3	0	314,3644	4,06298733
3	0	316,8644	4,06317806
3	0	319,3644	4,06312084
3	0	321,8644	4,06304455
3	0	324,3644	4,06310177
3	0	326,8644	4,06306362
3	0	329,3644	4,06289196
3	0	331,8644	4,06293011
3	0	334,3644	4,06291103
3	0	336,8644	4,06306362
3	0	339,3644	4,06298733
3	0	341,8644	4,06287289
3	0	344,3644	4,06289196
3	0	346,8644	4,06283474
3	0	349,3644	4,06279659
3	0	351,8644	4,06289196
3	0	354,3644	4,0627203
3	0	356,8644	4,06289196
3	0	359,3644	4,06279659
3	0	361,8644	4,06273937
3	0	364,3644	4,06277752
3	0	366,8644	4,06266308
3	0	369,3644	4,0627203
3	0	371,8644	4,062644
3	0	374,3644	4,0627203
3	0	376,8644	4,06268215
3	0	379,3644	4,06258678
3	0	381,8644	4,06260586
3	0	384,3644	4,06266308
3	0	386,8644	4,06260586
3	0	389,3644	4,06256771
3	0	391,8644	4,06256771
3	0	394,3644	4,0624342
3	0	396,8644	4,06241512
3	0	399,3644	4,06254864
3	0	401,8644	4,06251049
3	0	404,3644	4,06249142
3	0	406,8644	4,06247234
3	0	409,3644	4,06252956
3	0	411,8644	4,06249142
3	0	414,3644	4,06237745
3	0	416,8644	4,06233931
3	0	419,3644	4,06226301
3	0	421,8644	4,06241512
3	0	424,3644	4,06235838
3	0	426,8644	4,06228209
3	0	429,3644	4,06228209
3	0	431,8644	4,06230116
3	0	434,3644	4,06224394
3	0	436,8644	4,0621295
3	0	439,3644	4,06218672
3	0	441,8644	4,06222486
3	0	444,3644	4,06222486
3	0	446,8644	4,06224394
3	0	449,3644	4,06211042
3	0	451,8644	4,06209135
3	0	454,3644	4,06201506
3	0	456,8644	4,06209135
3	0	459,3644	4,06211042
3	0	461,8644	4,0620532
3	0	464,3644	4,06209135
3	0	466,8644	4,06207228
3	0	469,3644	4,06197691
3	0	471,8644	4,06190062
3	0	474,3644	4,06201506
3	0	476,8644	4,06195784
3	0	479,3644	4,06199598
3	0	481,8644	4,06195784
3	0	484,3644	4,06180525
3	0	486,8644	4,0618434
3	0	489,3644	4,06190062
3	0	491,8644	4,06186247
3	0	494,3644	4,06178617
3	0	496,8644	4,06180525
3	0	499,3644	4,06167173
3	0	501,8644	4,06165266
3	0	504,3644	4,06172895
3	0	506,8644	4,06174803
3	0	509,3644	4,06174803
3	0	511,8644	4,06167173
3	0	514,3644	4,06170988
3	0	516,8644	4,06159544
3	0	519,3644	4,06165266
3	0	521,8644	4,06167173
3	0	524,3644	4,06155729
3	0	526,8644	4,06148148
3	0	529,3644	4,06153822
3	0	531,8644	4,06153822
3	0	534,3644	4,06151915
3	0	536,8644	4,06142426
3	0	539,3644	4,06155729
3	0	541,8644	4,06155729
3	0	544,3644	4,06142426
3	0	546,8644	4,06148148
3	0	549,3644	4,06136703
3	0	551,8644	4,06144333
3	0	554,3644	4,06144333
3	0	556,8644	4,06140518
3	0	559,3644	4,06148148
3	0	561,8644	4,06134796
3	0	564,3644	4,06144333
3	0	566,8644	4,06138611
3	0	569,3644	4,06123352
3	0	571,8644	4,06129074
3	0	574,3644	4,06132889
3	0	576,8644	4,06134796
3	0	579,3644	4,06121445
3	0	581,8644	4,06121445
3	0	584,3644	4,0611763
3	0	586,8644	4,06121445
3	0	589,3644	4,06119537
3	0	591,8644	4,06119537
3	0	594,3644	4,06110001
3	0	596,8644	4,06113815
3	0	599,3644	4,06108093
3	0	600,0000	4,06108093

File: Al_Struktur_01_Zyklieren_05_PEIS_C03.mpt
EC-Lab ASCII FILE
Nb header lines : 68

Potentio Electrochemical Impedance Spectroscopy

Run on channel : 3 (SN 6987)
Grouped channel(s) : 3
User :
CE vs. WE compliance from -10 V to 10 V
Electrode connection : standard
Ewe ctrl range : min = 0,00 V, max = 5,00 V
Acquisition started on : 03.16.2015 02:19:29
Saved on :
	File : Al_Struktur_01_Zyklieren_05_PEIS_C03.mpr
	Directory : C:\Hupfer\Studenten Batterietests\SemArbeitToph\
	Host : 192.168.0.2
Device : VMP3 (SN 0324)
Address : 192.168.0.1
EC-Lab for windows v10.33 (software)
Internet server v10.33 (firmware)
Command interpretor v10.32 (firmware)
Electrode material :
Initial state :
Electrolyte :
Comments :
Mass of active material : 0,001 mg
 at x = 0,000
Molecular weight of active material (at x = 0) : 0,001 g/mol
Atomic weight of intercalated ion : 0,001 g/mol
Acquisition started at : xo = 0,000
Number of e- transfered per intercalated ion : 1
for DX = 1, DQ = 26,801 mA.h
Battery capacity : 0,000 A.h
Electrode surface area : 0,001 cm²
Characteristic mass : 0,001 g
Multi Sine          0
E (V)               0,0000
vs.                 Eoc
tE (h:m:s)          0:00:0,0000
record              0
dI                  0,000
unit dI             mA
dt (s)              0,000
fi                  1,000
unit fi             MHz
ff                  500,000
unit ff             mHz
Sel Nd              1
Nd                  6
Nt                  51
Log                 1
Va (mV)             10,0
pw                  0,10
Na                  2
E range min (V)     0,000
E range max (V)     5,000
I Range             Auto
Bandwidth           5
corr                0
nc cycles           0
goto Ns'            0
nr cycles           0
inc. cycle          0

Number of loops : 1
Loop 0 from point number 0 to 37

freq/Hz	Re(Z)/Ohm	-Im(Z)/Ohm	|Z|/Ohm	Phase(Z)/deg	time/s	<Ewe>/V	<I>/mA	Cs/µF	Cp/µF	cycle number	I Range	|Ewe|/V	|I|/A	Re(Y)/Ohm-1	Im(Y)/Ohm-1	|Y|/Ohm-1	Phase(Y)/deg
1000024,25	20,8402824	-5,68681145	21,6022491	15,2630463	21275,4755	3,36321831	0,0216513816	-0,0279859975	-0,00193945854	1	10	0,000484083517	2,24089399E-005	0,0446586534	-0,0121862721	0,0462914743	-15,2630463
675622,438	18,6291962	-2,1033504	18,7475605	6,44176388	21276,7075	3,36355472	0,0131574916	-0,111996494	-0,00140973716	1	10	0,0023536263	0,000125543069	0,0530035049	-0,00598442042	0,0533402748	-6,44176388
456457,438	18,4526863	-0,771831989	18,4688206	2,39515018	21277,9395	3,36371684	0,0126708038	-0,451748818	-0,000788976904	1	10	0,0076526138	0,000414353126	0,0540980063	-0,00226279115	0,0541453101	-2,39515018
308398,406	18,4170761	0,129487544	18,417532	-0,402830899	21278,2535	3,36370182	0,0131724197	3,98547411	0,00019700313	1	10	0,0108269053	0,000587858609	0,0542947501	0,000381737773	0,0542960912	0,402830899
208361,797	18,5268879	0,893963993	18,5484428	-2,76250768	21278,6695	3,36373377	0,0134595884	0,854440868	0,00198475621	1	10	0,0101485271	0,000547136355	0,0538502298	0,00259839464	0,0539128818	2,76250768
140771,469	18,733326	1,6579721	18,806551	-5,05772114	21279,0855	3,36377239	0,0144199291	0,681911886	0,00529985968	1	10	0,0101323752	0,000538768363	0,0529659279	0,00468769064	0,0531729609	5,05772114
95104,9688	19,0358543	2,56549454	19,2079544	-7,67560101	21279,3995	3,36377144	0,0139108542	0,652297735	0,0116365915	1	10	0,0108732507	0,00056608062	0,0515953004	0,00695358682	0,0520617664	7,67560101
64257,8047	19,4335518	3,63003588	19,7696762	-10,5804739	21279,7135	3,36376762	0,0137374345	0,682312489	0,0230041426	1	10	0,0105402945	0,000533154642	0,0497225113	0,00928777736	0,0505825169	10,5804739
43408,1992	20,0040092	5,03844738	20,6287746	-14,1371412	21280,0275	3,36376834	0,0139761204	0,727698743	0,0434108451	1	10	0,0103748264	0,000502929848	0,047007829	0,0118399505	0,048475977	14,1371412
29333,4883	20,8643417	6,79297066	21,9423161	-18,0341091	21280,3415	3,36376834	0,0132563328	0,798723876	0,0765510574	1	10	0,010228591	0,000466158235	0,043335095	0,0141089531	0,0455740392	18,0341091
19812,0098	22,1341209	9,11983204	23,939312	-22,3929329	21280,5535	3,36377215	0,0138716977	0,88085568	0,12783657	1	10	0,0109811947	0,000458709692	0,0386223719	0,0159134213	0,0417722948	22,3929329
13391,1094	23,9402103	12,0456543	26,7998409	-26,7095165	21280,8675	3,36377168	0,0136330063	0,986672878	0,199328572	1	10	0,0101450104	0,000378547411	0,0333321653	0,01677127	0,037313655	26,7095165
9040,93652	26,6700554	15,6655235	30,9305744	-30,4292297	21281,1427	3,36381745	0,0151397139	1,12372959	0,288254201	1	10	0,0101801436	0,000329128816	0,0278771203	0,0163745321	0,0323304683	30,4292297
6110,23389	30,5867901	19,9008865	36,4910545	-33,0495033	21281,5280	3,36379075	0,0132693769	1,30885005	0,389279842	1	10	0,00936936866	0,00025675795	0,022970004	0,0149451271	0,0274039768	33,0495033
4131,0332	36,3158798	24,5859795	43,8555984	-34,0981369	21282,2258	3,36380005	0,000903327193	1,56701779	0,492491663	1	11	0,0102407727	0,000233511193	0,0188819338	0,0127831353	0,0228021052	34,0981369
2787,32349	43,8027077	29,0452747	52,5576363	-33,5480843	21282,6768	3,36379814	0,000895306992	1,96588123	0,600394368	1	11	0,0102345841	0,000194730674	0,0158573017	0,0105148675	0,0190267302	33,5480843
1883,19141	53,0111618	32,5697365	62,2171288	-31,5663128	21283,1278	3,36379647	0,000898290018	2,59484506	0,711082518	1	11	0,0101657715	0,000163391844	0,0136945387	0,00841384102	0,0160727445	31,5663128
1273,77686	63,2755928	34,4855423	72,0628433	-28,5906239	21283,5788	3,36379838	0,000875814992	3,62317824	0,82973814	1	11	0,0101008611	0,000140167394	0,0121846609	0,00664070621	0,0138767771	28,5906239
859,17511	74,0258255	34,6437645	81,7313461	-25,0793915	21284,0298	3,363801	0,000888123817	5,34703922	0,960696518	1	11	0,0100641595	0,000123137084	0,0110816881	0,00518618245	0,0122352075	25,0793915
580,929382	84,2456818	33,1599121	90,5368118	-21,4850769	21284,4803	3,36379647	0,000865836686	8,26196671	1,10830617	1	11	0,0100422576	0,000110919056	0,0102777304	0,00404541381	0,0110452306	21,4850769
392,612793	93,3474808	30,3791466	98,1664124	-18,0270386	21284,9348	3,36379623	0,000865556998	13,3438187	1,27792513	1	11	0,0100308042	0,000102181628	0,00968672056	0,00315246102	0,010186784	18,0270386
265,424622	101,009468	26,9269066	104,536934	-14,9266768	21285,3853	3,36379814	0,000844108697	22,2685776	1,4774946	1	11	0,0100199925	9,58512173E-005	0,00924320426	0,00246403529	0,00956599694	14,9266768
179,368607	107,311684	23,3295116	109,818321	-12,2652245	21285,8383	3,36379814	0,000841124507	38,0336533	1,71644437	1	11	0,0100166379	9,12109899E-005	0,00889810268	0,00193444348	0,00910594873	12,2652245
121,124016	112,309006	19,9573174	114,068436	-10,0762806	21286,2858	3,36379552	0,000811936392	65,8396835	2,01539922	1	11	0,0100143701	8,77926504E-005	0,00863144733	0,00153380854	0,00876666699	10,0762806
81,8062515	116,296349	17,0847931	117,544594	-8,35739326	21286,7272	3,36379552	0,000856977189	113,873825	2,40568089	1	11	0,010017084	8,52194353E-005	0,00841706619	0,00123652932	0,00850740913	8,35739326
55,2297401	119,180328	14,8146582	120,097565	-7,08578014	21287,1768	3,36379671	0,000817251683	194,516083	2,9598546	1	11	0,0100122783	8,33678714E-005	0,00826296955	0,00102712482	0,00832656305	7,08578014
37,3548431	121,587852	13,3948145	122,323456	-6,28668022	21287,6010	3,36380267	0,000793845393	318,080109	3,81408572	1	11	0,0100101735	8,18336412E-005	0,00812588632	0,000895194127	0,00817504711	6,28668022
25,2341652	123,602371	12,9346972	124,277321	-5,97412395	21288,0488	3,36379623	0,000922906271	487,612579	5,28206444	1	11	0,0100160036	8,05939781E-005	0,00800282042	0,000837476284	0,00804652087	5,97412395
17,0330601	125,294151	13,5394697	126,023575	-6,1675334	21288,4498	3,36379457	0,000536376028	690,121887	7,96572876	1	11	0,010013571	7,94579173E-005	0,00788909476	0,000852507132	0,00793502294	6,1675334
11,5228605	127,275795	15,2411366	128,185104	-6,82858992	21289,0652	3,36380243	-0,000420791795	906,238403	12,8115616	1	12	0,010013653	7,811869E-005	0,00774587877	0,000927560439	0,00780121842	6,82858992
7,77362823	129,279099	18,6215401	130,613342	-8,19658661	21289,6379	3,36380148	-0,000609197712	1099,46338	22,347908	1	12	0,0100135226	7,66653902E-005	0,00757797575	0,00109154219	0,00765618589	8,19658661
5,25033522	131,935013	23,2097416	133,960968	-9,97727013	21290,0691	3,36380053	4,06493928E-006	1306,05896	39,2054863	1	12	0,0100124106	7,47412487E-005	0,00735196657	0,00129334303	0,00746486103	9,97727013
3,54791069	134,304276	30,4954281	137,722946	-12,7927971	21290,6915	3,36380434	-7,28316354E-006	1471,00012	72,1222992	1	12	0,0100113405	7,26918806E-005	0,00708071701	0,00160776335	0,00726095401	12,7927971
2,39647198	139,390213	40,1468277	145,056534	-16,0673294	21291,5970	3,36380291	-0,000649511407	1654,23242	126,713943	1	12	0,0100149242	6,90415254E-005	0,00662456965	0,00190799241	0,0068938639	16,0673294
1,62219644	143,442596	54,2978706	153,375473	-20,7333488	21292,9203	3,36380672	-0,000601520005	1806,89905	226,457993	1	12	0,0100108124	6,52699673E-005	0,00609770324	0,00230818684	0,0065199472	20,7333488
1,09602952	149,320175	71,0963211	165,381989	-25,46068	21294,8645	3,36380506	-0,000310007104	2042,44678	377,457947	1	12	0,0100141028	6,05513524E-005	0,00545936404	0,0025993858	0,00604660762	25,46068
0,739819586	158,035599	97,4998093	185,691849	-31,6724453	21297,7310	3,36380839	-0,000210581551	2206,43188	608,292358	1	12	0,0100151114	5,39340399E-005	0,00458320463	0,00282760081	0,00538526615	31,6724453
0,499264985	163,28215	134,06044	211,265854	-39,3872108	21304,0145	3,36380959	-0,00052261044	2377,87158	957,482971	1	13	0,0100200344	4,74285553E-005	0,00365830632	0,00300359935	0,00473337248	39,3872108