Folder: thesis/Experimentelles/Rohdaten/150123_Batterietests/LiCoO2 vs Li 200µm IS + GCPL/ECLab-Export

Note: README.md
# thesis

Zusammenfassung
---------------
Es konnten die Festkörperelektrolytkeramiken LATP, LAGP, LTO und LLTO hergestellt,
mit XRD und MAS-NMR charakterisiert und zu Elektrodensuspensionen weiterverarbeitet
werden. Aus den Daten der MAS-NMR konnten dabei gegenüber der XRD keine Mehrinfor-
mationen gewonnen werden. Die mit den Suspensionen gegossenen und gestanzten Elektro-
denproben wurden mittels REM und EDX untersucht und als Kathode in Testzellen verbaut.
Mit diesen wurden Ladekennlinien erstellt und eine zyklischer Voltametrie durchgeführt. Aus
den Ladekennlinien konnten die Kapazitäten und der Grad der Lithiuminsertation in die
Materialen bestimmt werden. Die zyklische Voltametrie lieferte nicht-reaktive Spannungsbe-
reiche der Materialien.

Für ein noch besseres Verständnis der Lithiumbewegung und -insertation wurde eine in-situ
NMR-Testzelle konzipiert, konstruiert, gebaut und getestet. Für den Test kam dabei eine
Lithium-Schwefel-Zelle zum Einsatz, für welche ein Di?usionskoe?zient sowie ein Spektrum
vor und nach einer 90 minütigen Ladezeit aufgenommen worden ist.

Abstract
--------
The all solid state electrolyte ceramics LATP, LAGP, LTO, and LLTO were successfully
synthesized and characterized by using XRD. MAS-NMR spectroscopy were not able to ge-
nerate additional information. All powders were processed to electrode slurries, casted on
aluminum foils and punched to electrode samples. Those samples were studied by SEM and
EDX and then build into battery test cells. The cells were analyzed by measuring the charge
curves as well as cyclic voltammetry. With the charge curves capacities and the amount of
lithium insertion were calculated. The cyclic voltammetry was able to detect non-reactive
voltage regions.

To be able to better understand lithium movement and insertion a novel in-situ NMR sample
cell was designed, constructed, built and tested. Therefore, a lithium-sulfur-cell was built into
the in-situ sample cell. With this setting a diffusion coeffcient as well as a NMR spectrum
before and after 90 minutes of charging were measured.

File: LiCoO2 vs Li 200µm IS + GCPL_04_GCPL_C03.mpt
EC-Lab ASCII FILE
Nb header lines : 81

Galvanostatic Cycling with Potential Limitation

Run on channel : 3 (SN 6987)
Grouped channel(s) : 3
User :
CE vs. WE compliance from -10 V to 10 V
Electrode connection : standard
Ewe ctrl range : min = 0,00 V, max = 5,00 V
Acquisition started on : 01.23.2015 14:58:37
Saved on :
	File : LiCoO2 vs Li 200µm IS + GCPL_04_GCPL_C03.mpr
	Directory : C:\Hupfer\Studenten Batterietests\LiCoO2 vs Li 200µm IS + GCPL\
	Host : 192.168.0.2
Device : VMP3 (SN 0324)
Address : 192.168.0.1
EC-Lab for windows v10.33 (software)
Internet server v10.33 (firmware)
Command interpretor v10.32 (firmware)
Electrode material : LiCoO2 vs Li
Initial state :
Electrolyte : LP30
Comments : 200µm
Mass of active material : 0,001 mg
 at x = 0,000
Molecular weight of active material (at x = 0) : 0,001 g/mol
Atomic weight of intercalated ion : 0,001 g/mol
Acquisition started at : xo = 0,000
Number of e- transfered per intercalated ion : 1
for DX = 1, DQ = 26,801 mA.h
Battery capacity : 0,000 A.h
Electrode surface area : 0,001 cm²
Characteristic mass : 0,001 g
Ns                  0                   1                   2
Set I/C             I                   I                   I
Is                  0,000               -300,000            300,000
unit Is             mA                  µA                  µA
vs.                 <None>              <None>              <None>
N                   1                   1                   1
I sign              > 0                 > 0                 > 0
t1 (h:m:s)          0:00:0,0000         10:00:0,0000        10:00:0,0000
I Range             1 mA                1 mA                1 mA
Bandwidth           5                   5                   5
dE1 (mV)            0,00                0,00                0,00
dt1 (s)             0,0000              10,0000             10,0000
EM (V)              0,000               2,000               4,200
tM (h:m:s)          0:00:0,0000         0:00:0,0000         0:00:0,0000
Im                  0,000               0,000               0,000
unit Im             mA                  mA                  mA
E range min (V)     0,000               0,000               0,000
E range max (V)     5,000               5,000               5,000
dq                  0,000               1,000               1,000
unit dq             mA.h                mA.h                mA.h
dtq (s)             0,0000              120,0000            120,0000
dQM                 0,000               0,000               0,000
unit dQM            mA.h                mA.h                mA.h
dxM                 0,000               0,000               0,000
tR (h:m:s)          0:00:0,0000         0:00:0,0000         0:00:0,0000
dER/dt (mV/h)       0,0                 0,1                 0,1
dER (mV)            0,00                5,00                5,00
dtR (s)             1,0000              120,0000            120,0000
EL (V)              pass                4,200               4,200
goto Ns'            0                   0                   0
nc cycles           0                   0                   0

Number of loops : 11
Loop 0 from point number 0 to 492
Loop 1 from point number 493 to 1357
Loop 2 from point number 1358 to 2194
Loop 3 from point number 2195 to 2995
Loop 4 from point number 2996 to 3757
Loop 5 from point number 3758 to 4469
Loop 6 from point number 4470 to 5091
Loop 7 from point number 5092 to 5568
Loop 8 from point number 5569 to 5916
Loop 9 from point number 5917 to 6204
Loop 10 from point number 6205 to 6453

mode	ox/red	error	control changes	Ns changes	counter inc.	Ns	time/s	control/V/mA	Ewe/V	dq/mA.h	<I>/mA	P/W	(Q-Qo)/mA.h	x	Capacity/mA.h
1	0	0	1	1	0	1	7216,8139	-0,300000012	2,89023805	0	0	0	0	0	0
1	1	0	0	0	0	2	8289,0548	0,300000012	3,88844752	0,00083366528076761293	0,3001195047099456	0,00116699899	0,085686405382178202	-0,0031970749914063846	0,087535136099730931
1	1	0	0	0	0	2	9379,0548	0,300000012	3,91136193	0,00083366941201521293	0,30012099195909958	0,00117388181	0,17655632551967462	-0,0065875538876434022	0,17840505623722736
1	1	0	0	0	0	2	10469,0548	0,300000012	3,95547509	0,00083367566979262554	0,30012324475899539	0,00118712999	0,26742598072447082	-0,0099780228988851686	0,26927471144202358
1	1	0	0	0	0	2	11559,0548	0,300000012	4,10032082	0,00083367129212286733	0,30012166879786342	0,00123059517	0,3582960491575401	-0,013368507328229394	0,36014477987509286
1	0	0	1	0	0	1	12630,9196	-0,300000012	4,04408455	-0,00083309378569490381	-0,29991376648127936	0,00121287664	0,36098257120144659	-0,013468745077754851	0,043316725546423296
1	0	0	1	0	0	1	13720,9196	-0,300000012	3,89428234	-0,00083308809401591603	-0,29991171747681901	0,00116794091	0,27017600472031667	-0,010080629991616763	0,1341232920275533
1	0	0	1	0	0	1	14810,9196	-0,300000012	3,82195497	-0,0008330835921416681	-0,29991009680207008	0,00114624284	0,1793694180676271	-0,0066925141528506662	0,22492987868024285
1	0	0	1	0	0	1	15900,9196	-0,300000012	3,75406957	-0,00083308490708967053	-0,29991057018335674	0,00112588517	0,088563452805379712	-0,0033044214989974336	0,31573584394249037
1	1	0	0	0	0	2	16972,0029	0,300000012	3,88631225	0,00083366542057030733	0,30011955503891616	0,00116635836	0,08600407475512192	-0,003208927662821929	0,043350531098029677
1	1	0	0	0	0	2	18062,0029	0,300000012	3,91170502	0,0008336660292430057	0,30011977416109018	0,00117398007	0,17687360491781574	-0,0065993920085747354	0,13422006126072342
1	1	0	0	0	0	2	19152,0029	0,300000012	3,96445417	0,00083366036175356979	0,30011773386486854	0,00118980301	0,26774273167672253	-0,009989841302789865	0,22508918801962998
1	1	0	0	0	0	2	20242,0029	0,300000012	4,11522818	0,0008336593903402487	0,30011738415606874	0,00123505155	0,35861203786061875	-0,013380297291592589	0,31595849420352608
1	0	0	1	0	0	1	21313,1153	-0,300000012	4,01009417	-0,00083308749116626048	-0,29991150045094035	0,0012026733	0,34956844828365626	-0,013042868805240611	0,049147859456863174
1	0	0	1	0	0	1	22403,1153	-0,300000012	3,85003567	-0,00083308059347172582	-0,29990901728087782	0,00115466036	0,25876195938487405	-0,0096547566138042317	0,13995434835564544
1	0	0	1	0	0	1	23493,1153	-0,300000012	3,77395272	-0,00083308016447060634	-0,2999088628404729	0,00113184191	0,16795570225515024	-0,0062666530699830336	0,23076060548536922
1	0	0	1	0	0	1	24583,1152	-0,300000012	3,57942772	-0,00083307377853658458	-0,29990656390419731	0,00107349386	0,077150173204740506	-0,0028785766917799571	0,32156613453577907
1	1	0	0	0	0	2	25654,1280	0,300000012	3,8780005	0,00083366192908750643	0,30011829810509261	0,00116385892	0,11293226026441386	-0,0042136544695040902	0,062524988132640717
1	1	0	0	0	0	2	26744,1280	0,300000012	3,93854666	0,00083367166564199667	0,30012180326475149	0,00118204369	0,20380218199371194	-0,0076041334251333683	0,15339490986193882
1	1	0	0	0	0	2	27834,1280	0,300000012	4,02393293	0,00083366560329827994	0,30011962082098707	0,00120766123	0,294672263632376	-0,010994618347196093	0,24426499150060291
1	1	0	0	0	0	2	28924,1280	0,300000012	4,17543125	0,00083366601211825997	0,30011976799618176	0,00125312945	0,3855423342088601	-0,014385102856514006	0,33513506207708685
1	0	0	1	0	0	1	29996,9240	-0,300000012	3,94104552	-0,00083308567899299994	-0,29991084806855859	0,00118196232	0,3183035927047177	-0,011876335007545016	0,078305354656560026
[...]
1	1	0	0	0	0	2	50633,5374	0,300000012	4,06019163	0,0008336777031620343	0,3001239725793079	0,00121856085	0,28789592165419491	-0,010741783917101467	0,19924667256447005
1	1	0	0	0	0	2	51716,0626	0,300000012	4,19994879	0,00021051807623108227	0,3001208114202071	0,00126049202	0,3781425188400617	-0,01410900579594656	0,2894932697503367
1	0	0	1	0	0	1	52796,1132	-0,300000012	3,78052974	-0,00083308254398074419	-0,29990971527444256	0,0011338176	0,28817448693513133	-0,010752177562268208	0,089968031904930214
1	0	0	1	0	0	1	53886,1132	-0,300000012	3,50157166	-0,0008330750219490793	-0,29990700734304819	0,00105014583	0,19736911856789834	-0,007364107179370496	0,18077340027216336
1	0	0	1	0	0	1	54976,1132	-0,300000012	2,18581963	-0,00083308021441102029	-0,29990887662934349	0,000655546726	0,1065637214197477	-0,0039760357226180512	0,27157879742031421
1	1	0	0	0	0	2	56051,1724	0,300000012	4,01689816	0,00083366740919815168	0,30012026675231706	0,0012055526	0,1903444594338513	-0,0071020077023245466	0,086701394552682816
1	1	0	0	0	0	2	57141,1724	0,300000012	4,10737419	0,0008336670550836457	0,30012013927109517	0,00123270566	0,28121428292549085	-0,010492482992574702	0,17757121804432234
1	0	0	1	0	0	1	58221,1108	-0,300000012	3,87159681	-0,0008330807636446423	-0,29990907435344704	0,001161127	0,31957581935950829	-0,011923803494562184	0,025821337688277542
1	0	0	1	0	0	1	59311,1108	-0,300000012	3,57273626	-0,0008330855190886391	-0,29991078631328269	0,00107150211	0,2287702199343681	-0,0085357244905832947	0,11662693711341794
1	0	0	1	0	0	1	60401,1108	-0,300000012	2,89879894	-0,00083308482911189389	-0,29991053792165491	0,000869380368	0,1379644939216548	-0,0051476407634518522	0,20743266312613123
1	1	0	0	0	0	2	61471,4826	0,300000012	4,06244135	0,00083366141854392166	0,30011811011679821	0,00121921219	0,18046702094895872	-0,0067334671920959181	0,065859777744424026
1	1	0	0	0	0	2	62561,4826	0,300000012	4,19043446	0,00083366655998097523	0,30011996103413408	0,00125763298	0,27133651111951219	-0,010123930045688197	0,15672926791497738
1	0	0	1	0	0	1	63638,0356	-0,300000012	3,53830743	-0,00083307302119665677	-0,29990628707217741	0,0010611607	0,19607775838172998	-0,0073159247945723187	0,082470145160652032
1	1	0	0	0	0	2	64717,0438	0,300000012	3,99716735	0,00083366654331650995	0,30011995503492659	0,00119962974	0,13785609525037867	-0,0051435962632829766	0,015839581306003862
1	1	0	0	0	0	2	65807,0491	0,300000012	4,16225815	0,00083367925517426586	0,30011859992976717	0,00124917109	0,22872634747954611	-0,0085340875503067418	0,10670983353517117
1	0	0	1	0	0	1	66885,3309	-0,300000012	3,50231528	-0,00083309444141387942	-0,29990807225441446	0,00105037261	0,18861042747180461	-0,0070373086383898163	0,064977211693847488
1	1	0	0	0	0	2	67960,2942	0,300000012	4,04381609	0,00083367580562829978	0,3001173581177641	0,00121361937	0,15406139282810493	-0,0057482377041622656	0,027511581291577882
1	0	0	1	0	0	1	69038,4940	-0,300000012	3,88997412	-0,00083309528149995546	-0,29990837413128755	0,00116663578	0,23061275424535562	-0,0086044719230399667	0,0066606139838959757
1	0	0	1	0	0	1	70128,5155	-0,300000012	2,53885865	-0,00083310424629350502	-0,29991160082103686	0,000761433155	0,13980518135583886	-0,0052163192864518362	0,097468186873412749
1	1	0	0	0	0	2	71205,3191	0,300000012	4,1687398	0,00083367728926241395	0,30011789279894701	0,00125111337	0,20844258621864496	-0,0077772731458554547	0,079199561214755034
1	1	0	0	0	0	2	71419,2754	0,300000012	4,19996786	0,00032947733538846176	0,30011605946183354	0,00126047782	0,22627924625135936	-0,0084427829133205005	0,097036221247469427

File: LiCoO2 vs Li 200µm IS + GCPL_06_PEIS_C03.mpt
EC-Lab ASCII FILE
Nb header lines : 68

Potentio Electrochemical Impedance Spectroscopy

Run on channel : 3 (SN 6987)
Grouped channel(s) : 3
User :
CE vs. WE compliance from -10 V to 10 V
Electrode connection : standard
Ewe ctrl range : min = 0,00 V, max = 5,00 V
Acquisition started on : 01.23.2015 14:58:37
Saved on :
	File : LiCoO2 vs Li 200µm IS + GCPL_06_PEIS_C03.mpr
	Directory : C:\Hupfer\Studenten Batterietests\LiCoO2 vs Li 200µm IS + GCPL\
	Host : 192.168.0.2
Device : VMP3 (SN 0324)
Address : 192.168.0.1
EC-Lab for windows v10.33 (software)
Internet server v10.33 (firmware)
Command interpretor v10.32 (firmware)
Electrode material : LiCoO2 vs Li
Initial state :
Electrolyte : LP30
Comments : 200µm
Mass of active material : 0,001 mg
 at x = 0,000
Molecular weight of active material (at x = 0) : 0,001 g/mol
Atomic weight of intercalated ion : 0,001 g/mol
Acquisition started at : xo = 0,000
Number of e- transfered per intercalated ion : 1
for DX = 1, DQ = 26,801 mA.h
Battery capacity : 0,000 A.h
Electrode surface area : 0,001 cm²
Characteristic mass : 0,001 g
Multi Sine          0
E (V)               0,0000
vs.                 Eoc
tE (h:m:s)          0:00:0,0000
record              0
dI                  0,000
unit dI             mA
dt (s)              0,000
fi                  1,000
unit fi             MHz
ff                  1,000
unit ff             Hz
Sel Nd              1
Nd                  6
Nt                  51
Log                 1
Va (mV)             10,0
pw                  0,10
Na                  2
E range min (V)     0,000
E range max (V)     5,000
I Range             Auto
Bandwidth           5
corr                0
nc cycles           0
goto Ns'            0
nr cycles           0
inc. cycle          0

Number of loops : 1
Loop 0 from point number 0 to 36

freq/Hz	Re(Z)/Ohm	-Im(Z)/Ohm	|Z|/Ohm	Phase(Z)/deg	time/s	<Ewe>/V	<I>/mA	Cs/µF	Cp/µF	cycle number	I Range	|Ewe|/V	|I|/A	Re(Y)/Ohm-1	Im(Y)/Ohm-1	|Y|/Ohm-1	Phase(Y)/deg
1000024,25	0,422123849	-3,66442657	3,68865967	83,428772	71421,4396	4,18189812	0,35263446	-0,0434313789	-0,0428625941	1	9	0,000320349616	8,68471616E-005	0,0310243573	-0,26932013	0,271101177	-83,428772
681286,5	9,42790031	-1,6088444	9,564188	9,68407917	71423,8236	4,18258524	0,251090914	-0,145203233	-0,00410873536	1	10	0,0012221213	0,000127780979	0,103066802	-0,0175880566	0,10455671	-9,68407917
464160,125	9,47400284	-0,921095073	9,5186739	5,55303955	71425,0556	4,18275785	0,251555234	-0,372261286	-0,00348581141	1	10	0,00394796208	0,000414759677	0,104563624	-0,0101660341	0,105056651	-5,55303955
316223,094	9,50409126	-0,240088433	9,50712299	1,44707465	71425,2676	4,18275213	0,251422882	-2,09630919	-0,00133690203	1	10	0,0101725664	0,00106999418	0,105150752	-0,00265627494	0,105184294	-1,44707465
215441,859	9,54344463	0,320987493	9,54884148	-1,92637968	71425,6836	4,18274021	0,252884835	2,30145216	0,00260061934	1	10	0,01011643	0,00105944055	0,104665555	0,00352035719	0,104724742	1,92637968
146777,328	9,65196896	0,884888887	9,69244766	-5,23821211	71426,0996	4,18279457	0,254326284	1,22538459	0,0102136973	1	10	0,0101426439	0,00104644813	0,102742232	0,00941936951	0,103173114	5,23821211
100024,406	9,80646133	1,55234706	9,92856789	-8,99519062	71426,5156	4,18249941	0,224581793	1,02500343	0,0250570402	1	10	0,0101150423	0,00101878156	0,0994807556	0,015747644	0,100719459	8,99519062
68127,4297	10,1238117	2,26374674	10,3738184	-12,6043491	71426,8296	4,18281221	0,253444225	1,03197765	0,0491415337	1	10	0,0107748322	0,00103865634	0,094073385	0,02103539	0,0963965207	12,6043491
46411,125	10,5704212	3,17304492	11,0363951	-16,7087841	71427,1436	4,18280888	0,253530025	1,08074152	0,089334622	1	10	0,0106258029	0,000962796563	0,0867836326	0,0260508396	0,0906092972	16,7087841
31628,4121	11,2907801	4,28713322	12,077302	-20,7918758	71427,4576	4,18280458	0,253888071	1,17375052	0,147900581	1	10	0,0102961119	0,000852517551	0,0774076879	0,0293918625	0,0827999488	20,7918758
21545,4082	12,4250774	5,54565382	13,6064997	-24,0525188	71427,7726	4,18280649	0,253673613	1,33202577	0,221271411	1	10	0,0102448398	0,000752937223	0,067112945	0,0299543496	0,0734942853	24,0525188
14672,8496	14,0665808	6,80841064	15,6276407	-25,8275928	71427,9846	4,18281364	0,254007399	1,59316194	0,302388012	1	10	0,0105634471	0,000675946358	0,057597246	0,0278778244	0,0639891848	25,8275928
10015,2705	16,1500664	7,85014439	17,9568768	-25,9232292	71428,2368	4,18286324	0,258160144	2,02432299	0,386877507	1	10	0,0105368122	0,000586784212	0,0500855781	0,0243453495	0,0556889698	25,9232292
6856,00244	18,495266	8,56478024	20,3821087	-24,8478909	71428,5872	4,18286085	0,255998939	2,71039724	0,478593886	1	10	0,0104507804	0,000512742845	0,0445207395	0,020616645	0,0490626357	24,8478909
4642,42725	20,996603	8,9482317	22,8238506	-23,0825005	71429,0384	4,18285513	0,256218016	3,83122635	0,588890314	1	10	0,00973055232	0,000426332641	0,0403061397	0,0171774775	0,0438138172	23,0825005
3160,05566	23,5081444	9,16597748	25,231884	-21,3011322	71429,4894	4,18285799	0,256021321	5,49473333	0,725111544	1	10	0,0100307465	0,000397542521	0,0369248688	0,0143972458	0,0396323949	21,3011322
2152,93286	26,0544434	9,15016747	27,614481	-19,3509769	71429,9410	4,18285513	0,25632897	8,07905579	0,887043476	1	10	0,0101643354	0,000368079898	0,0341670923	0,011999283	0,0362128839	19,3509769
1468,58972	28,6070042	8,89439774	29,9578209	-17,2713451	71430,3919	4,18285656	0,256231099	12,184371	1,07402837	1	10	0,0102177123	0,000341069943	0,0318751298	0,00991051272	0,0333802663	17,2713451
999,040405	30,9480362	8,38934898	32,0649681	-15,1671572	71430,8429	4,18285561	0,256480008	18,9892941	1,29988146	1	10	0,0102408966	0,000319379615	0,0301003456	0,00815955829	0,0311866831	15,1671572
681,089661	33,1900826	7,71254349	34,0744019	-13,0819349	71431,5384	4,18284512	0,243703589	30,298296	1,55223322	1	11	0,0103155533	0,000302736153	0,0285858996	0,00664264662	0,0293475445	13,0819349
464,553894	35,0119781	6,95021391	35,6951561	-11,2277994	71431,9899	4,18284893	0,243726447	49,2930679	1,8688035	1	11	0,0102938386	0,00028838194	0,0274788216	0,00545480987	0,0280150063	11,2277994
316,315765	36,5801392	6,23286057	37,1073456	-9,66971779	71432,4389	4,18284988	0,243690833	80,7257156	2,27754474	1	11	0,0102793779	0,000277017331	0,0265659615	0,00452655321	0,0269488413	9,66971779
215,344498	37,9316635	5,57947397	38,339817	-8,36779118	71432,8894	4,18284655	0,243649691	132,46254	2,80530143	1	11	0,0102684796	0,000267828087	0,0258048791	0,00379571156	0,0260825455	8,36779118
146,737289	39,115303	4,99744511	39,4332504	-7,28077316	71433,3364	4,18284845	0,243686631	217,035904	3,48580027	1	11	0,0102624577	0,000260248838	0,0251548383	0,00321382983	0,0253593102	7,28077316
99,9040375	40,1562386	4,51237011	40,4089699	-6,41145086	71433,7880	4,18285513	0,243745476	353,046906	4,40236712	1	11	0,010263741	0,000253996608	0,024592204	0,00276343455	0,0247469805	6,41145086
68,1888962	41,0038757	4,12723494	41,2110634	-5,74773407	71434,2501	4,18285561	0,243759543	565,519104	5,6720233	1	11	0,0102583179	0,000248921453	0,0241433345	0,00243014144	0,0242653284	5,74773407
46,3802681	41,7389183	3,88450551	41,9192886	-5,31701612	71434,6888	4,18284941	0,243492573	883,387207	7,58568478	1	11	0,010257801	0,000244703609	0,023752721	0,00221058843	0,0238553658	5,31701612
31,5869217	42,366478	3,84494805	42,5405922	-5,18564367	71435,1187	4,18284512	0,243649691	1310,45581	10,7052364	1	11	0,0102601852	0,000241185771	0,0234107468	0,00212463061	0,0235069599	5,18564367
21,5220375	42,9091454	4,03862858	43,0987854	-5,37686491	71435,5406	4,18285036	0,243721887	1831,06116	16,0783176	1	11	0,0102562234	0,000237970118	0,0231004171	0,00217422168	0,0232025106	5,37686491
14,6851501	43,4488602	4,59821224	43,6914978	-6,04115105	71436,0011	4,18284941	0,24411419	2356,96289	26,105793	1	11	0,0102585629	0,0002347954	0,0227606427	0,00240876898	0,0228877477	6,04115105
9,9904108	44,0411224	5,45713425	44,3779297	-7,06351519	71436,4519	4,18284845	0,243550763	2919,25562	44,1435585	1	11	0,0102562429	0,000231111349	0,0223627035	0,00277096196	0,0225337241	7,06351519
6,81718969	44,7339668	6,82954836	45,2523003	-8,68033695	71436,7914	4,18284893	0,243838444	3418,39893	77,861969	1	11	0,0102588674	0,000226703778	0,0218452029	0,00333511387	0,0220983233	8,68033695
4,63925123	45,5852318	8,95947552	46,4573517	-11,1193743	71437,2763	4,18285465	0,242659271	3829,03809	142,411789	1	11	0,0102594905	0,000220836751	0,0211210381	0,00415120041	0,0215251185	11,1193743
3,16039586	46,9439468	11,5531979	48,3447037	-13,8260784	71437,9703	4,18285751	0,244437218	4358,89502	248,933334	1	11	0,0102558956	0,000212141036	0,0200854614	0,00494315708	0,0206847899	13,8260784
2,1522038	48,0930214	15,5617456	50,5480614	-17,9303341	71439,4845	4,18286037	0,242482871	4752,02197	450,387207	1	12	0,0102614686	0,000203004194	0,0188223161	0,0060904487	0,0197831523	17,9303341
1,46630979	50,5112724	20,6897411	54,5843773	-22,2743206	71440,9461	4,18286371	0,241896003	5246,13379	753,724731	1	12	0,0102587156	0,000187942336	0,0169531964	0,00694413809	0,0183202606	22,2743206
0,998529792	53,2444992	28,6693821	60,472393	-28,3001442	71443,0788	4,18286276	0,2418596	5559,56445	1249,57727	1	12	0,0102578923	0,000169629348	0,0145599693	0,00783978309	0,0165364724	28,3001442