Folder: thesis/Experimentelles/Rohdaten/Batteriemessungen/AlteZelle/150511_LLTO_LTO_Tests/ECLab-Export

Note: README.md
# thesis

Zusammenfassung
---------------
Es konnten die Festkörperelektrolytkeramiken LATP, LAGP, LTO und LLTO hergestellt,
mit XRD und MAS-NMR charakterisiert und zu Elektrodensuspensionen weiterverarbeitet
werden. Aus den Daten der MAS-NMR konnten dabei gegenüber der XRD keine Mehrinfor-
mationen gewonnen werden. Die mit den Suspensionen gegossenen und gestanzten Elektro-
denproben wurden mittels REM und EDX untersucht und als Kathode in Testzellen verbaut.
Mit diesen wurden Ladekennlinien erstellt und eine zyklischer Voltametrie durchgeführt. Aus
den Ladekennlinien konnten die Kapazitäten und der Grad der Lithiuminsertation in die
Materialen bestimmt werden. Die zyklische Voltametrie lieferte nicht-reaktive Spannungsbe-
reiche der Materialien.

Für ein noch besseres Verständnis der Lithiumbewegung und -insertation wurde eine in-situ
NMR-Testzelle konzipiert, konstruiert, gebaut und getestet. Für den Test kam dabei eine
Lithium-Schwefel-Zelle zum Einsatz, für welche ein Di?usionskoe?zient sowie ein Spektrum
vor und nach einer 90 minütigen Ladezeit aufgenommen worden ist.

Abstract
--------
The all solid state electrolyte ceramics LATP, LAGP, LTO, and LLTO were successfully
synthesized and characterized by using XRD. MAS-NMR spectroscopy were not able to ge-
nerate additional information. All powders were processed to electrode slurries, casted on
aluminum foils and punched to electrode samples. Those samples were studied by SEM and
EDX and then build into battery test cells. The cells were analyzed by measuring the charge
curves as well as cyclic voltammetry. With the charge curves capacities and the amount of
lithium insertion were calculated. The cyclic voltammetry was able to detect non-reactive
voltage regions.

To be able to better understand lithium movement and insertion a novel in-situ NMR sample
cell was designed, constructed, built and tested. Therefore, a lithium-sulfur-cell was built into
the in-situ sample cell. With this setting a diffusion coeffcient as well as a NMR spectrum
before and after 90 minutes of charging were measured.

File: LLTO_LP30_LTO_02_CV_C01_loop1.mpt
EC-Lab ASCII FILE
Nb header lines : 3
mode	ox/red	error	control changes	counter inc.	time/s	control/V	Ewe/V	<I>/mA	cycle number	(Q-Qo)/C	P/W
2	1	0	0	0	1386,11	0,271191865	0,272081673	-0,49299645423889158	2	0	0,000134135305
2	1	0	0	0	1393,28	0,342897266	0,343025208	-0,042093787478127795	2	-0,00102383422	1,44392297E-005
2	1	0	1	0	1400,47	0,41480276	0,415302068	0,0024773953355179437	2	-0,0011385096	1,02886736E-006
2	1	0	0	0	1407,66	0,486708224	0,487167895	0,022482331682112902	2	-0,00103993819	1,095267E-005
2	1	0	1	0	1414,81	0,558212996	0,558612347	0,034160485001688333	2	-0,000830815232	1,90824685E-005
2	1	0	1	0	1421,96	0,629719138	0,6300475	0,04091637216818839	2	-0,000557632768	2,57792581E-005
2	1	0	0	0	1429,11	0,701224625	0,701853216	0,04625362494455959	2	-0,000242098642	3,24632565E-005
2	1	0	1	0	1436,26	0,772730052	0,77302742	0,050962916226126253	2	0,000107978645	3,93957307E-005
2	1	0	1	0	1443,41	0,84423542	0,844622552	0,053484323298713664	2	0,00048625606	4,51740671E-005
2	1	0	1	0	1450,52	0,91534096	0,91594708	0,053545107754568109	2	0,000872422999	4,90444836E-005
2	1	0	0	0	1457,67	0,986846387	0,987341762	0,050626861513592301	2	0,0012482265	4,99860143E-005
2	1	0	1	0	1464,82	1,05835176	1,05890691	0,048187346052145696	2	0,00160357542	5,10259124E-005
2	1	0	1	0	1471,97	1,1298573	1,13032162	0,048032346550219872	2	0,00194933289	5,42919988E-005
2	1	0	0	0	1479,12	1,20136261	1,20176637	0,049151775349552397	2	0,0022999947	5,90689524E-005
2	1	0	1	0	1486,27	1,27286816	1,27335167	0,050552564634320563	2	0,00266115973	6,43711901E-005
2	1	0	0	0	1493,43	1,3443737	1,34489667	0,054593211854808256	2	0,00303939939	7,34222267E-005
2	1	0	0	0	1500,58	1,41587901	1,41630137	0,06329273933079072	2	0,00346044614	8,9641595E-005
2	1	0	1	0	1507,73	1,48738456	1,48793662	0,070003151001098278	2	0,00394301303	0,000104160252
2	1	0	0	0	1514,88	1,55888999	1,55949187	0,073279155748120269	2	0,00445943419	0,000114278249
2	1	0	1	0	1522,03	1,63039541	1,63081634	0,075901506002992166	2	0,00499450834	0,000123781414
2	1	0	1	0	1529,18	1,70190084	1,70232129	0,078248431653870963	2	0,00554905366	0,000133203968
2	1	0	0	0	1536,33	1,77340627	1,77389634	0,08375908226783712	2	0,00613116613	0,000148579929
2	1	0	1	0	1543,48	1,84491181	1,84539139	0,089882078347727437	2	0,006754959	0,000165867619
2	1	0	1	0	1550,63	1,91641724	1,91711688	0,095970867880775027	2	0,00742275501	0,000183987373
2	1	0	0	0	1557,82	1,98832273	1,98898268	0,10118531140809229	2	0,00813571271	0,000201255825
2	1	0	1	0	1564,97	2,05982828	2,06065822	0,10511078115086958	2	0,00887896586	0,0002165974
2	1	0	0	0	1572,12	2,13133359	2,13206267	0,10895360602686832	2	0,00964873843	0,000232295919
2	1	0	1	0	1579,27	2,20283985	2,20341945	0,11189723433468046	2	0,0104417941	0,000246556534
2	1	0	1	0	1586,42	2,27434444	2,27491236	0,11565354699268938	2	0,0112590026	0,000263101683
2	1	0	0	0	1593,57	2,34584999	2,34650755	0,1200109677544483	2	0,01210465	0,000281606655
2	1	0	1	0	1600,72	2,41735554	2,41820288	0,12439796421676918	2	0,012983284	0,00030081952
2	1	0	1	0	1607,87	2,48886085	2,48944736	0,1295337177192164	2	0,0138961943	0,000322467356
2	1	0	0	0	1615,02	2,56036639	2,56101227	0,13510292232967914	2	0,014845835	0,000346000248
2	1	0	1	0	1622,17	2,63187194	2,63235712	0,14233170038399611	2	0,0158407222	0,00037466787
2	1	0	0	0	1629,33	2,70337725	2,70377159	0,1503654736249408	2	0,0168906283	0,000406553881
2	1	0	0	0	1636,48	2,77488279	2,77559757	0,1599397653869048	2	0,0180037823	0,000443928438
2	1	0	1	0	1643,63	2,8463881	2,84706235	0,17121923074591904	2	0,019188676	0,000487471814
2	1	0	0	0	1650,78	2,91789365	2,9183569	0,18494935512232314	2	0,020464249	0,000539748231
2	1	0	1	0	1657,93	2,98939919	2,99007225	0,20414037016841213	2	0,0218582675	0,000610394462
2	1	0	1	0	1665,08	3,0609045	3,06165767	0,22686675144359392	2	0,0234005395	0,000694588351
2	1	0	0	0	1672,23	3,13240981	3,13296199	0,2561394649868207	2	0,0251269098	0,000802475202
2	1	0	1	0	1679,38	3,20391536	3,20463729	0,29591429311161235	2	0,0270975363	0,000948297966
2	1	0	0	0	1686,53	3,27542162	3,27599335	0,34951172173969082	2	0,0294004064	0,00114499812
2	1	0	0	0	1693,68	3,34692621	3,3476274	0,42395456306015514	2	0,0321582519	0,00141924189
2	1	0	1	0	1700,83	3,41843176	3,41911197	0,52131735766306163	2	0,0355262533	0,00178244244
2	1	0	0	0	1707,98	3,48993707	3,49066687	0,6389547719930615	2	0,0396683365	0,00223037833
2	1	0	1	0	1715,13	3,56144309	3,56224275	0,76403688689342003	2	0,0446907692	0,00272168475
2	1	0	1	0	1722,28	3,63294816	3,63373756	0,87330636195838451	2	0,0505648926	0,00317336619
2	1	0	0	0	1729,43	3,70445395	3,70508194	0,95356459977725901	2	0,0571175069	0,00353303505
2	1	0	1	0	1736,62	3,77635908	3,7772584	1,0134415933862328	2	0,0642050654	0,00382803078
2	1	0	1	0	1743,77	3,84786463	3,84865308	1,0722258935372011	2	0,0716462582	0,0041266256
2	1	0	0	0	1750,92	3,91936994	3,92006803	1,1998487375676597	2	0,0797213167	0,00470348867
2	1	0	1	0	1758,08	3,99087548	3,99172306	1,3252588339770899	2	0,0888093784	0,00529006636
2	1	0	0	0	1765,23	4,06238079	4,0632081	1,4061484786992224	2	0,0985706225	0,00571347401
2	1	0	0	0	1772,38	4,13388586	4,13485336	1,5310783095814387	2	0,109028503	0,00633078441
2	0	0	1	1	1779,47	4,19519091	4,19595289	1,6457342337816954	2	0,120627329	0,00690542348
2	0	0	0	1	1786,62	4,12368584	4,12456799	0,82434411377955994	2	0,129089281	0,00340006338
2	0	0	1	1	1793,81	4,05178022	4,05247211	0,40810773413007475	2	0,133349344	0,00165384519
2	0	0	1	1	1800,96	3,98027563	3,98075724	0,19462343213646038	2	0,135422781	0,000774748623
2	0	0	0	1	1808,11	3,90876889	3,90962243	0,06714607231939817	2	0,136326417	0,000262515794
2	0	0	1	1	1815,38	3,83606362	3,83689427	-0,027046440081903754	2	0,136449039	0,000103774328
2	0	0	0	1	1822,53	3,76455808	3,76517868	-0,084869475763601818	2	0,136026591	0,000319548737
2	0	0	0	1	1829,72	3,69265294	3,69334269	-0,11864996871542344	2	0,1352828	0,000438215007
2	0	0	1	1	1836,87	3,62114716	3,62179828	-0,14173324988223613	2	0,134343356	0,000513329229
2	0	0	0	1	1844,02	3,54964209	3,55054379	-0,15817475679796211	2	0,13326475	0,000561606372
2	0	0	1	1	1851,17	3,47813606	3,47889829	-0,17013518485085443	2	0,132085428	0,000591883028
2	0	0	1	1	1858,32	3,40663075	3,40751362	-0,18047040894938026	2	0,130827472	0,000614955381
2	0	0	0	1	1865,47	3,33512568	3,33575821	-0,18982381195140397	2	0,129499927	0,000633206335
2	0	0	1	1	1872,62	3,2636199	3,2639823	-0,19881263274388995	2	0,128107116	0,00064892089
2	0	0	0	1	1879,78	3,19211435	3,19256783	-0,20652795645097875	2	0,126654953	0,000659354497
2	0	0	0	1	1886,93	3,12060905	3,1211431	-0,21408732980489731	2	0,125146106	0,000668197172
2	0	0	1	1	1894,08	3,0491035	3,04981852	-0,22156162916993072	2	0,123584658	0,000675722782
2	0	0	0	1	1901,23	2,97759819	2,97833347	-0,2267438329290601	2	0,121977769	0,000675318763
2	0	0	1	1	1908,38	2,90609264	2,90662813	-0,2312362125764289	2	0,120334446	0,000672117691
2	0	0	1	1	1915,53	2,83458734	2,83516335	-0,2339683369112513	2	0,118666425	0,000663338462
2	0	0	0	1	1922,68	2,76308179	2,7635479	-0,23293087794445456	2	0,11699158	0,000643715612
2	0	0	1	1	1929,83	2,69157624	2,69209313	-0,2288346335602305	2	0,115335971	0,000616044155
2	0	0	0	1	1936,98	2,62007093	2,62066841	-0,22306026464017779	2	0,11371579	0,000584566966
2	0	0	0	1	1944,13	2,54856539	2,54920363	-0,21604005239593648	2	0,11214143	0,000550730096
2	0	0	1	1	1951,28	2,47705984	2,4777987	-0,20737228604654458	2	0,110623218	0,000513826788
2	0	0	0	1	1958,43	2,40555453	2,40614367	-0,19880874974963536	2	0,109167852	0,000478362403
2	0	0	0	1	1965,58	2,33405018	2,33463979	-0,18950453610341622	2	0,107777968	0,000442424818
2	0	0	1	1	1972,73	2,26254368	2,26299334	-0,18106541351880858	2	0,106449693	0,000409749831
2	0	0	0	1	1979,88	2,19103813	2,19153833	-0,1751413671299824	2	0,105172686	0,000383829029
2	0	0	1	1	1987,03	2,11953259	2,12004328	-0,17072588787414134	2	0,103934094	0,000361946266
2	0	0	1	1	1994,18	2,04802752	2,04844809	-0,16799363393026112	2	0,10272114	0,000344126223
2	0	0	0	1	2001,33	1,97652197	1,97722399	-0,16755607902693258	2	0,101519503	0,000331295887
2	0	0	1	1	2008,48	1,9050163	1,90569878	-0,16868029620187968	2	0,100314021	0,000321453845
2	0	0	0	1	2015,64	1,83351088	1,83419394	-0,17128314279640723	2	0,0990937725	0,000314166507
2	0	0	0	1	2022,79	1,76200545	1,76268888	-0,17479115538298995	2	0,097852543	0,000308102433
2	0	0	1	1	2029,94	1,69050002	1,690763	-0,17967869911808566	2	0,0965827554	0,000303794106
2	0	0	0	1	2037,09	1,61899447	1,61958885	-0,18544913347189683	2	0,0952747613	0,000300351356
2	0	0	1	1	2044,24	1,54748917	1,548154	-0,19337077500919443	2	0,0939173847	0,000299367734
2	0	0	1	1	2051,39	1,47598374	1,47654879	-0,20266190605858992	2	0,0924986228	0,000299240201
2	0	0	0	1	2058,54	1,40447819	1,4051441	-0,21231388005738339	2	0,0910100937	0,000298331608
2	0	0	1	1	2065,69	1,33297276	1,33339846	-0,22036273358389779	2	0,0894572288	0,000293831341
2	0	0	0	1	2072,84	1,26146734	1,26217425	-0,22421687026508154	2	0,0878613964	0,000283000758
2	0	0	0	1	2079,99	1,18996191	1,19052899	-0,22559032752178653	2	0,0862499475	0,000268571835
2	0	0	1	1	2087,14	1,11845636	1,1189537	-0,23063213199687517	2	0,0846201628	0,000258066691
2	0	0	0	1	2094,29	1,04695094	1,04745877	-0,24433490486505194	2	0,0829215273	0,000255930732
2	0	0	1	1	2101,44	0,975444794	0,975591779	-0,26596351995926915	2	0,0810972229	0,000259471824
2	0	0	1	1	2108,59	0,903940082	0,904468954	-0,29176805168390227	2	0,0791023299	0,000263895141
2	0	0	0	1	2115,74	0,832434595	0,832863748	-0,31835540515991443	2	0,0769147724	0,000265146664
2	0	0	1	1	2122,89	0,760929167	0,76113832	-0,34024687631366125	2	0,0745534897	0,000258974935
2	0	0	1	1	2130,04	0,68942368	0,68963331	-0,35489753462995123	2	0,0720614418	0,000244749157
2	0	0	0	1	2137,19	0,617918253	0,618138373	-0,3643243839809056	2	0,0694855005	0,000225202879
2	0	0	1	1	2144,35	0,546412766	0,546543181	-0,3786868222523481	2	0,066829659	0,000206968703
2	0	0	0	1	2151,50	0,474907309	0,475228697	-0,39987693820148704	2	0,0640453845	0,000190032995
2	0	0	0	1	2158,65	0,403401881	0,403783888	-0,42896647114927514	2	0,0610846207	0,000173209744
2	0	0	1	1	2165,80	0,331896424	0,332218766	-0,47199386327216986	2	0,0578714386	0,000156805225
2	0	0	1	1	2171,92	0,270591825	0,270638138	-0,53668016195297242	2	0,0548028387	0,000145246115

File: LLTO_LP30_LTO_02_CV_C01_loop4.mpt
EC-Lab ASCII FILE
Nb header lines : 3
mode	ox/red	error	control changes	counter inc.	time/s	control/V	Ewe/V	<I>/mA	cycle number	(Q-Qo)/C	P/W
2	1	0	0	0	3744,10	0,271591902	0,272242069	-0,61854028701782221	5	0	0,000168392682
2	1	0	0	0	3751,27	0,343297303	0,343787074	-0,048173342598602234	5	-0,00147213682	1,65613728E-005
2	1	0	1	0	3758,50	0,415602773	0,416124046	0,015800622548946707	5	-0,00152739498	6,57501914E-006
2	1	0	0	0	3765,65	0,487108231	0,487208039	0,035360586053381299	5	-0,00133408001	1,72279615E-005
2	1	0	0	0	3772,80	0,558613956	0,55896467	0,048311994711934592	5	-0,00102983229	2,70046985E-005
2	1	0	1	0	3779,95	0,630119205	0,630558789	0,06030287737182039	5	-0,000639569655	3,8024511E-005
2	1	0	0	0	3787,11	0,701624632	0,702163994	0,072237105264017613	5	-0,000163002172	5,0722294E-005
2	1	0	1	0	3794,26	0,773130119	0,773658931	0,081484773467915494	5	0,000391870708	6,30414215E-005
2	1	0	1	0	3801,41	0,844635487	0,845013559	0,086141689370075597	5	0,000996106537	7,27908919E-005
2	1	0	1	0	3808,48	0,91534096	0,915896952	0,087869395715340032	5	0,00161492045	8,0479309E-005
2	1	0	0	0	3815,63	0,986846387	0,987101197	0,088314309172953293	5	0,00224753888	8,71751618E-005
2	1	0	1	0	3822,78	1,05835176	1,05888689	0,08855091894899159	5	0,00288263452	9,3765404E-005
2	1	0	1	0	3829,93	1,1298573	1,13023138	0,089477589101685683	5	0,00352135184	0,000101130376
2	1	0	0	0	3837,08	1,20136261	1,20191669	0,091133287816774208	5	0,00416951068	0,000109534623
2	1	0	1	0	3844,23	1,27286816	1,2731812	0,091790807472231334	5	0,00483218161	0,000116866329
2	1	0	0	0	3851,38	1,3443737	1,34494686	0,08871126151643671	5	0,0054822606	0,000119311931
2	1	0	0	0	3858,53	1,41587901	1,41662228	0,082674170184569907	5	0,00609842967	0,00011711807
2	1	0	1	0	3865,68	1,48738456	1,48775625	0,080523940676357158	5	0,00668020127	0,000119799995
2	1	0	0	0	3872,83	1,55888999	1,55950189	0,084136358481676326	5	0,00726990448	0,000131210807
2	1	0	1	0	3879,98	1,63039541	1,63083649	0,090317160787526554	5	0,00789506547	0,000147292521
2	1	0	1	0	3887,13	1,70190084	1,70236135	0,097933935079102413	5	0,0085713556	0,00016671895
2	1	0	0	0	3894,32	1,77380645	1,77427745	0,10665356883934397	5	0,00931088347	0,000189233018
2	1	0	1	0	3901,47	1,84531188	1,84585238	0,11525985963332142	5	0,0101080043	0,000212752682
2	1	0	1	0	3908,62	1,91681731	1,91736758	0,12408011495911842	5	0,0109671894	0,000237907196
2	1	0	0	0	3915,78	1,98832273	1,9889226	0,13177518783292475	5	0,0118857389	0,000262090645
2	1	0	1	0	3922,93	2,05982828	2,06035733	0,13841548631899042	5	0,0128573105	0,00028518535
2	1	0	0	0	3930,08	2,13133359	2,13187242	0,14469170496643802	5	0,0138739431	0,000308464252
2	1	0	0	0	3937,23	2,20283914	2,20345759	0,14948706332749443	5	0,0149290692	0,000329388393
2	1	0	1	0	3944,38	2,27434444	2,27485228	0,15481384424492672	5	0,0160206594	0,000352178613
2	1	0	0	0	3951,53	2,34584999	2,34659743	0,16106358508113728	5	0,0171523225	0,000377951394
2	1	0	1	0	3958,68	2,41735554	2,41794229	0,16755721974186643	5	0,0183306783	0,000405143684
2	1	0	1	0	3965,83	2,48886085	2,48944736	0,17477954896942979	5	0,0195586178	0,000435104477
2	1	0	0	0	3972,98	2,56036639	2,56117272	0,18154516854944362	5	0,0208362043	0,000464968529
2	1	0	1	0	3980,13	2,63187194	2,63253736	0,18917630329572899	5	0,022164546	0,000498013687
2	1	0	0	0	3987,28	2,70337725	2,70403266	0,19696477785085565	5	0,0235489178	0,000532599166
2	1	0	0	0	3994,43	2,77488279	2,77538705	0,20511553459800736	5	0,024990106	0,000569274998
2	1	0	1	0	4001,58	2,8463881	2,84678149	0,21443910454399795	5	0,0264908131	0,000610461284
2	1	0	0	0	4008,73	2,91789365	2,91853714	0,22569125696706349	5	0,0280669611	0,00065868831
2	1	0	1	0	4015,88	2,98939967	2,99005294	0,24204896931906371	5	0,0297419224	0,000723739213
2	1	0	1	0	4023,03	3,0609045	3,06166744	0,26205118326470256	5	0,0315449722	0,00080231356
2	1	0	0	0	4030,18	3,13240981	3,13306212	0,2874653985879072	5	0,0335092843	0,000900646963
2	1	0	1	0	4037,33	3,20391536	3,20463729	0,32101388671435418	5	0,0356829949	0,0010287331
2	1	0	0	0	4044,49	3,27542186	3,27597356	0,36785527760686067	5	0,0381406173	0,00120508415
2	1	0	0	0	4051,64	3,34692621	3,34745669	0,43567125002543072	5	0,0410058908	0,00145839062
2	1	0	1	0	4058,79	3,41843176	3,41899204	0,52203606006999514	5	0,0444239601	0,00178483711
2	1	0	0	0	4065,94	3,48993707	3,49046659	0,6186354604239241	5	0,0485014841	0,00215932634
2	1	0	0	0	4073,09	3,56144261	3,56233263	0,72254042048006899	5	0,0532970577	0,00257392926
2	1	0	1	0	4080,24	3,63294816	3,63364697	0,82293575846900544	5	0,0588378608	0,00299025793
2	1	0	0	0	4087,39	3,70445395	3,7049818	0,90408562589436595	5	0,0650284663	0,00334962085
2	1	0	1	0	4094,54	3,77595901	3,77656698	0,97269242505232614	5	0,071747981	0,00367343798
2	1	0	1	0	4101,73	3,84786487	3,84886408	1,0359730391452686	5	0,0789743289	0,0039873193
2	1	0	0	0	4108,88	3,91937041	3,91999817	1,1082092911625914	5	0,0866370425	0,00434417836
2	1	0	1	0	4116,03	3,99087572	3,99166346	1,1841696848471947	5	0,094835788	0,00472680666
2	1	0	0	0	4123,18	4,06238127	4,06333876	1,267234714391332	5	0,103590526	0,00514920382
2	1	0	0	0	4130,33	4,13388681	4,13470364	1,391989746441439	5	0,113061376	0,00575546501
2	0	0	1	1	4137,42	4,19519138	4,19600344	1,4960383065044845	5	0,123633355	0,00627738191
2	0	0	0	1	4144,57	4,12368584	4,12435818	0,70557594501102899	5	0,13113004	0,002910048
2	0	0	1	1	4151,76	4,0517807	4,05256224	0,31389337747047373	5	0,13463001	0,00127207243
2	0	0	0	1	4158,91	3,98027515	3,98096728	0,11986335068165022	5	0,136098683	0,000477172085
2	0	0	0	1	4166,11	3,90836954	3,90900111	0,017268007975265594	5	0,136554226	6,75006595E-005
2	0	0	1	1	4173,34	3,83606386	3,83671427	-0,044687003857688979	5	0,136435717	0,000171451262
2	0	0	0	1	4180,49	3,76455855	3,76518917	-0,08550783221532288	5	0,135958388	0,00032195315
2	0	0	1	1	4187,68	3,69265294	3,69347358	-0,11397724035972112	5	0,135233596	0,000420971919
2	0	0	1	1	4194,83	3,62114739	3,62167788	-0,13644982529027994	5	0,134331986	0,000494177337
2	0	0	0	1	4201,98	3,54964232	3,5502634	-0,15537979042467987	5	0,133283436	0,000551639183
2	0	0	1	1	4209,13	3,47813654	3,47876835	-0,17042714427225296	5	0,132112578	0,000592876575
2	0	0	1	1	4216,28	3,40663028	3,40719199	-0,1822326144298687	5	0,130846977	0,000620901526
2	0	0	0	1	4223,43	3,33512568	3,33565831	-0,19193019985686989	5	0,129505202	0,000640213548
2	0	0	1	1	4230,58	3,26362014	3,26396298	-0,20127216431622675	5	0,128095627	0,000656944874
2	0	0	0	1	4237,73	3,19211483	3,19274831	-0,20942757162265523	5	0,126624465	0,000668649503
2	0	0	0	1	4244,88	3,12060952	3,12103295	-0,21796482289210006	5	0,12509197	0,000680275378
2	0	0	1	1	4252,03	3,04910398	3,0496285	-0,22726289601996541	5	0,123497367	0,000693067384
2	0	0	0	1	4259,18	2,97759867	2,97832394	-0,2354483533029761	5	0,121839441	0,000701241486
2	0	0	1	1	4266,33	2,90609312	2,90678883	-0,24302164954133264	5	0,120122947	0,000706412597
2	0	0	1	1	4273,48	2,83458757	2,83492279	-0,24887765866393853	5	0,118359298	0,00070554897
2	0	0	0	1	4280,63	2,76308227	2,76350808	-0,25043556552069869	5	0,116568893	0,000692080706
2	0	0	1	1	4287,78	2,69157672	2,69216371	-0,24813169854072205	5	0,114781655	0,00066801114
2	0	0	0	1	4294,94	2,62007117	2,62041807	-0,2443247588040937	5	0,113017291	0,000640232989
2	0	0	0	1	4302,09	2,54856586	2,54933405	-0,24045086908154234	5	0,111281253	0,000612989592
2	0	0	1	1	4309,24	2,47706032	2,47759843	-0,23680469331642019	5	0,109571658	0,000586706912
2	0	0	0	1	4316,39	2,40555477	2,40617394	-0,23385097513285834	5	0,107885472	0,000562686124
2	0	0	0	1	4323,54	2,33405018	2,33444047	-0,22990203291974477	5	0,106224336	0,00053669262
2	0	0	1	1	4330,69	2,26254392	2,26305366	-0,22515556565485894	5	0,104592033	0,000509539153
2	0	0	0	1	4337,84	2,19103861	2,19174886	-0,22076292863736579	5	0,10299281	0,000483856886
2	0	0	1	1	4344,99	2,11953306	2,12002349	-0,2158536944383136	5	0,101428926	0,000457614893
2	0	0	1	1	4352,14	2,04802752	2,04856873	-0,21226316846002822	5	0,0998962298	0,000434835674
2	0	0	0	1	4359,29	1,97652221	1,97706389	-0,21009753745359706	5	0,0983836427	0,000415376242
2	0	0	1	1	4366,44	1,90501654	1,90558875	-0,20779919360453914	5	0,0968850851	0,00039597979
2	0	0	0	1	4373,59	1,83351111	1,83406377	-0,20476931558611501	5	0,0954044983	0,00037555999
2	0	0	0	1	4380,74	1,76200569	1,76245868	-0,20098837853098938	5	0,0939495787	0,000354233722
2	0	0	1	1	4387,89	1,69050014	1,69086337	-0,19816667082098637	5	0,0925205052	0,000335072778
2	0	0	0	1	4395,04	1,61899471	1,61939859	-0,19672556198202026	5	0,0911065862	0,000318577106
2	0	0	1	1	4402,19	1,54748929	1,54806399	-0,19799355433012166	5	0,089693144	0,000306506699
2	0	0	1	1	4409,34	1,47598386	1,47632849	-0,20072830491699146	5	0,0882655531	0,000296340906
2	0	0	0	1	4416,49	1,40447831	1,40487361	-0,20503559056669562	5	0,0868116766	0,000288049079
2	0	0	1	1	4423,64	1,33297288	1,33322823	-0,21067340221877018	5	0,0853221864	0,000280875742
2	0	0	0	1	4430,80	1,26146746	1,26215434	-0,2159371271263817	5	0,0837931409	0,000272545993
2	0	0	0	1	4437,95	1,18996203	1,190539	-0,22172624322896262	5	0,0822256729	0,00026397375
2	0	0	1	1	4445,10	1,11845636	1,11863315	-0,2288232334734248	5	0,0806142166	0,000255969266
2	0	0	0	1	4452,25	1,04695106	1,04736876	-0,24276344974835773	5	0,0789306387	0,00025426285
2	0	0	1	1	4459,40	0,975445628	0,975723445	-0,26719525650454166	5	0,0771094263	0,000260708679
2	0	0	1	1	4466,55	0,903940201	0,904338777	-0,29720890188279258	5	0,0750905126	0,000268777541
2	0	0	0	1	4473,70	0,832434595	0,832803726	-0,32769069448113485	5	0,0728495717	0,00027290202
2	0	0	1	1	4480,85	0,760929227	0,761429071	-0,35107236945380762	5	0,0704150498	0,000267316704
2	0	0	1	1	4488,00	0,689423025	0,689632118	-0,36740356991540147	5	0,067840755	0,000253373291
2	0	0	0	1	4495,15	0,617918313	0,618218601	-0,38335356310320499	5	0,0651539713	0,000236996304
2	0	0	1	1	4502,30	0,546412826	0,546703637	-0,40259484760463149	5	0,062343806	0,000220100061
2	0	0	0	1	4509,45	0,474907339	0,475379109	-0,42806608602404774	5	0,0593745038	0,000203493677
2	0	0	0	1	4516,60	0,403401881	0,403803945	-0,46211456041783098	5	0,0561957508	0,000186603676
2	0	0	1	1	4523,75	0,331896454	0,332118541	-0,51654397339249594	5	0,0527113527	0,000171553824
2	0	0	1	1	4529,83	0,270991862	0,271520317	-0,59742653369903565	5	0,0493461974	0,000162213444