Folder: thesis/Experimentelles/Rohdaten/Batteriemessungen/AlteZelle/150511_LLTO_LTO_Tests/ECLab-Export (part 5)

File: LLTO_LP30_LTO_05_GCPL_C01_loop7.mpt
EC-Lab ASCII FILE
Nb header lines : 3
mode	ox/red	error	control changes	Ns changes	counter inc.	Ns	time/s	control/V/mA	Ewe/V	dq/mA.h	<I>/mA	P/W	(Q-Qo)/mA.h	x	Capacity/mA.h
1	0	0	1	1	0	1	282313,29	-0,0100000007	2,5851562	0	0	0	0	0	0
1	0	0	1	0	0	1	283013,30	-0,0100000007	1,8047092	-2,7755239671044467E-005	-0,0099916938924296883	1,80321022E-005	-0,0019428171732246573	7,2489120878482829E-005	0,0019428171732246573
1	0	0	1	0	0	1	283713,31	-0,0100000007	1,46692026	-2,775674971136161E-005	-0,0099922374964768141	1,46578159E-005	-0,0038857673541630208	0,00014498320445359482	0,0038857673541630208
1	0	0	1	0	0	1	284413,33	-0,0100000007	1,24331892	-2,7755996205171363E-005	-0,0099919662394713536	1,2423201E-005	-0,0058287157933936448	0,00021747722304324928	0,0058287157933936448
1	0	0	1	0	0	1	285113,34	-0,0100000007	1,0714457	-2,7756122780498115E-005	-0,0099920118054789722	1,07058977E-005	-0,0077716226151483046	0,00028996968882892026	0,0077716226151483046
1	0	0	1	0	0	1	285813,36	-0,0100000007	0,928157449	-2,7757171479105536E-005	-0,009992389329941088	9,27451038E-006	-0,009714584035374519	0,00036246419175697331	0,009714584035374519
1	1	0	0	0	0	2	286501,18	0,0100000007	1,4283421	2,7797144698186051E-005	0,010006779411730371	1,4293104E-005	-0,0086794102395390989	0,00032384046562838272	0,0014732112866778243
1	1	0	0	0	0	2	287201,19	0,0100000007	1,77821815	2,7796611561232973E-005	0,010006587485889795	1,77938946E-005	-0,0067336465993611456	0,00025124140810630544	0,0034189749268557786
1	1	0	0	0	0	2	287901,20	0,0100000007	1,99987185	2,7797422916835382E-005	0,010006879568515621	2,00124759E-005	-0,0047878655747986938	0,00017864170194946902	0,005364755951418231
1	1	0	0	0	0	2	288601,22	0,0100000007	2,13569403	2,7797441543856016E-005	0,010006886273764456	2,13716467E-005	-0,0028420727367362234	0,00010604155501506347	0,0073105487894807027
1	1	0	0	0	0	2	289301,23	0,0100000007	2,22401428	2,7797743077027712E-005	0,010006994823965629	2,22556992E-005	-0,00089625996522889178	3,3440664337029344E-005	0,009256361560988032
1	1	0	0	0	0	2	290001,24	0,0100000007	2,28427792	2,7796836058764406E-005	0,010006668303211994	2,2858012E-005	0,001049577666521805	-3,9161153910109696E-005	0,01120219919273873
1	1	0	0	0	0	2	290701,26	0,0100000007	2,32487369	2,779678310898857E-005	0,010006649241659722	2,3264196E-005	0,0029953887806971546	-0,0001117619827508593	0,013148010306914082
1	1	0	0	0	0	2	291401,27	0,0100000007	2,35403156	2,7796499283984304E-005	0,010006547067091518	2,35557272E-005	0,0049411539271258208	-0,00018436109647317581	0,015093775453342752
1	1	0	0	0	0	2	292101,28	0,0100000007	2,37734628	2,7794898344462531E-005	0,010005970739960805	2,37876575E-005	0,0068868440929234355	-0,00025695741256733526	0,017039465619140358
1	1	0	0	0	0	2	292801,30	0,0100000007	2,39718604	2,7794038125572518E-005	0,010005661067123123	2,39854307E-005	0,0088324462569875046	-0,00032955044519849658	0,018985067783204429
1	1	0	0	0	0	2	293501,31	0,0100000007	2,41416144	2,7793337852901056E-005	0,010005408973466003	2,41546732E-005	0,010777990818304438	-0,0004021413285937145	0,020930612344521363
1	1	0	0	0	0	2	294201,33	0,0100000007	2,42918897	2,7793518771986579E-005	0,010005474103432154	2,43051873E-005	0,012723519721662024	-0,00047473162776941683	0,022876141247878947
1	1	0	0	0	0	2	294901,34	0,0100000007	2,44253635	2,7793675055365184E-005	0,010005530363899242	2,44388721E-005	0,014669063656039962	-0,00054732248777269792	0,024821685182256906
1	1	0	0	0	0	2	295601,35	0,0100000007	2,45429897	2,7795245936657821E-005	0,010006095870741728	2,45579504E-005	0,016614671657612102	-0,00061991573820913395	0,026767293183829046
1	1	0	0	0	0	2	296301,37	0,0100000007	2,46556497	2,7794819882139562E-005	0,01000594249406841	2,46703021E-005	0,018560320415448102	-0,00069251050931657203	0,028712941941665046
1	1	0	0	0	0	2	297001,38	0,0100000007	2,47600985	2,7794931040404157E-005	0,010005982510040189	2,47749103E-005	0,020505994807769914	-0,0007651062368811415	0,030658616333986861
1	1	0	0	0	0	2	297701,39	0,0100000007	2,48534727	2,7795648454429789E-005	0,010006240774349533	2,4868983E-005	0,022451705417379738	-0,00083770331576142157	0,032604326943596704
1	1	0	0	0	0	2	298401,41	0,0100000007	2,4942646	2,7796469844308579E-005	0,010006536468662854	2,49589502E-005	0,024397444939025878	-0,00091030147338864922	0,034550066465242886
1	1	0	0	0	0	2	299101,42	0,0100000007	2,50257087	2,7796149317899514E-005	0,01000642108172683	2,50417779E-005	0,026343173045629978	-0,00098289920510531046	0,036495794571847008
1	1	0	0	0	0	2	299801,43	0,0100000007	2,51041889	2,7796343524836832E-005	0,010006490994412139	2,51204838E-005	0,028288895707816598	-0,0010554967336834358	0,038441517234033613
1	1	0	0	0	0	2	300501,45	0,0100000007	2,51702571	2,7796601003035904E-005	0,010006583685245014	2,51868278E-005	0,03023462922910631	-0,0011280946674292974	0,040387250755323328
1	1	0	0	0	0	2	301201,46	0,0100000007	2,5221622	2,7796565447830493E-005	0,010006570885617523	2,52381942E-005	0,032180382616018739	-0,0012006933423882522	0,042333004142235776
1	1	0	0	0	0	2	301901,47	0,0100000007	2,52785254	2,7796804886414774E-005	0,0100066570813822	2,52953541E-005	0,03412616640687513	-0,001273293151759235	0,044278787933092173
1	1	0	0	0	0	2	302601,49	0,0100000007	2,53346634	2,7796142570674419E-005	0,010006418652772566	2,53509243E-005	0,03607192645905129	-0,0013458920754081411	0,046224547985268333
1	1	0	0	0	0	2	303301,50	0,0100000007	2,5386219	2,7796781669577789E-005	0,010006648723540062	2,54030983E-005	0,038017680778434182	-0,0014184907851588229	0,048170302304651226
1	1	0	0	0	0	2	304001,51	0,0100000007	2,54354835	2,7796373289906317E-005	0,010006501710096789	2,54520201E-005	0,03996342953855145	-0,0014910892874858294	0,050116051064768493
1	1	0	0	0	0	2	304701,53	0,0100000007	2,5471766	2,7796520099302547E-005	0,010006554559995843	2,54884617E-005	0,04190918261568873	-0,001563687950886657	0,052061804141905773
1	1	0	0	0	0	2	305401,54	0,0100000007	2,55105281	2,7797142582583341E-005	0,010006778650128064	2,5527821E-005	0,043854957526932531	-0,0016362874289473552	0,054007579053149574
1	1	0	0	0	0	2	306101,55	0,0100000007	2,55498624	2,7797343428608854E-005	0,010006850953305056	2,55673658E-005	0,045800764678998624	-0,0017088881099564813	0,055953386205215667
1	1	0	0	0	0	2	306801,57	0,0100000007	2,55867171	2,779656409420487E-005	0,010006570397855723	2,56035291E-005	0,047746566970806765	-0,0017814886096228486	0,057899188497023808
1	1	0	0	0	0	2	307501,58	0,0100000007	2,5623951	2,7796458593880134E-005	0,010006532418936067	2,56406893E-005	0,04969235271705488	-0,0018540884919521254	0,059844974243271923
1	1	0	0	0	0	2	308201,59	0,0100000007	2,56541204	2,7796782234424931E-005	0,010006648926939363	2,56711774E-005	0,05163811089209111	-0,001926687345562417	0,061790732418308147
1	1	0	0	0	0	2	308901,61	0,0100000007	2,56877279	2,7796163418537213E-005	0,010006426157858662	2,57042357E-005	0,053583885176760115	-0,001999286800244767	0,06373650670297719
1	1	0	0	0	0	2	309601,62	0,0100000007	2,57198071	2,7796625137432582E-005	0,010006592373227549	2,57367628E-005	0,055529639140105741	-0,0020718854967112192	0,065682260666322778
1	1	0	0	0	0	2	310301,64	0,0100000007	2,57492137	2,7796329711977805E-005	0,01000648602234459	2,5765914E-005	0,0574754075865792	-0,0021444847335626442	0,067628029112796275
1	1	0	0	0	0	2	311001,65	0,0100000007	2,57811022	2,7796878083816006E-005	0,010006683431939267	2,5798332E-005	0,05942119913706295	-0,0022170848324557565	0,069573820663280013
1	1	0	0	0	0	2	311701,66	0,0100000007	2,58112717	2,7797842505232742E-005	0,010007030616964259	2,58294185E-005	0,061366985910546918	-0,0022896847531125843	0,071519607436763904
1	1	0	0	0	0	2	312401,68	0,0100000007	2,58412504	2,7797468379657299E-005	0,010006895934816381	2,58590699E-005	0,063312781983086694	-0,002362285020729687	0,073465403509303642
1	1	0	0	0	0	2	313101,69	0,0100000007	2,58714223	2,7796472453460509E-005	0,010006537407939466	2,58883356E-005	0,06525858862399767	-0,002434885682666928	0,075411210150214605
1	1	0	0	0	0	2	313801,70	0,0100000007	2,58989191	2,7797011353799866E-005	0,010006731408675642	2,59163535E-005	0,067204372161545344	-0,0025074854825866224	0,077356993687762291
1	1	0	0	0	0	2	314501,72	0,0100000007	2,59235501	2,7796318506201107E-005	0,010006481988109677	2,59403532E-005	0,069150147081899622	-0,0025800849609872445	0,07930276860811657
1	1	0	0	0	0	2	315201,73	0,0100000007	2,59512377	2,7796769789937472E-005	0,01000664444735961	2,59684803E-005	0,071095929319840576	-0,002652684712416864	0,081248550846057523
1	1	0	0	0	0	2	315901,74	0,0100000007	2,59779716	2,7796819945900803E-005	0,010006662502692784	2,59952794E-005	0,073041684132878016	-0,0027252834405864605	0,08319430565909495
1	1	0	0	0	0	2	316601,76	0,0100000007	2,60045123	2,7797355256974698E-005	0,010006855210968798	2,60223387E-005	0,074987457368821504	-0,0027978828561394522	0,085140078895038451
1	1	0	0	0	0	2	317301,77	0,0100000007	2,60293365	2,7797159824054688E-005	0,010006784856938235	2,60469969E-005	0,076933240636623936	-0,0028704826459945878	0,087085862162840883
1	1	0	0	0	0	2	318001,78	0,0100000007	2,60551143	2,7797456383549917E-005	0,010006891615834902	2,60730703E-005	0,078879038499462554	-0,0029430829804101472	0,089031660025679501
1	1	0	0	0	0	2	318701,80	0,0100000007	2,60782194	2,7796817077582496E-005	0,010006661470584038	2,60955912E-005	0,080824826228558592	-0,0030156829367221466	0,090977447754775539
1	1	0	0	0	0	2	319401,81	0,0100000007	2,61005592	2,7797121907739587E-005	0,010006771207094638	2,61182322E-005	0,082770626190534323	-0,0030882833494593338	0,09292324771675127
1	1	0	0	0	0	2	320101,82	0,0100000007	2,61229014	2,7796645131738237E-005	0,010006599571271971	2,61401419E-005	0,084716424821147251	-0,0031608837125215846	0,094869046347364186
1	1	0	0	0	0	2	320801,84	0,0100000007	2,61461973	2,7797485571406368E-005	0,010006902123260906	2,61642435E-005	0,086662221358053632	-0,0032334839974648301	0,096814842884270566
1	1	0	0	0	0	2	321501,85	0,0100000007	2,61694932	2,7797581738067997E-005	0,010006936742592499	2,61876467E-005	0,088608023442382874	-0,0033060844893898803	0,098760644968599821
1	1	0	0	0	0	2	321971,14	0,0100000007	2,61836243	2,5796079257451411E-005	0,010006891500973304	2,62016692E-005	0,089912508655993728	-0,0033547565866087251	0,10006513018221067

File: LLTO_LP30_LTO_05_GCPL_C01_loop10.mpt
EC-Lab ASCII FILE
Nb header lines : 3
mode	ox/red	error	control changes	Ns changes	counter inc.	Ns	time/s	control/V/mA	Ewe/V	dq/mA.h	<I>/mA	P/W	(Q-Qo)/mA.h	x	Capacity/mA.h
1	0	0	1	1	0	1	401163,94	-0,0100000007	2,68238759	0	0	0	0	0	0
1	0	0	1	0	0	1	401853,96	-0,0100000007	1,80887187	-2,7753580887750208E-005	-0,0099910967419418317	1,80726147E-005	-0,001914884076199009	7,1446899472007514E-005	0,001914884076199009
1	0	0	1	0	0	1	402543,97	-0,0100000007	1,4591105	-2,7754193557322854E-005	-0,0099913172983922483	1,45784361E-005	-0,003829891781582633	0,00014289841171511421	0,003829891781582633
1	0	0	1	0	0	1	403233,98	-0,0100000007	1,21843827	-2,7753496813122182E-005	-0,0099910664756585178	1,21734975E-005	-0,0057448797009704531	0,00021434918571611491	0,0057448797009704531
1	0	0	1	0	0	1	403923,99	-0,0100000007	1,04305148	-2,7753786643190931E-005	-0,009991170812474272	1,04213059E-005	-0,0076598696077089638	0,00028580003386784192	0,0076598696077089638
1	0	0	1	0	0	1	404614,01	-0,0100000007	0,910227358	-2,7755618297494947E-005	-0,0099918301953273626	9,09483697E-006	-0,0095749662424265229	0,00035725486418396448	0,0095749662424265229
1	1	0	0	0	0	2	405288,36	0,0100000007	1,47630858	2,7799232393813629E-005	0,01000753096768516	1,47742039E-005	-0,0080578246376508032	0,00030064827109120032	0,0016957203595917155
1	1	0	0	0	0	2	405978,37	0,0100000007	1,79727483	2,7799107683408592E-005	0,010007486072454294	1,79862036E-005	-0,0061396807896026458	0,00022907974514869117	0,0036138642076398765
1	1	0	0	0	0	2	406668,39	0,0100000007	2,01260829	2,7798450036698746E-005	0,010007249324546814	2,01406729E-005	-0,0042215696818258291	0,00015751244078972557	0,0055319753154166925
1	1	0	0	0	0	2	407358,40	0,0100000007	2,15312767	2,7798725974746048E-005	0,010007348659865149	2,15470991E-005	-0,0023034650175333347	8,5945376845823373E-005	0,007450079979709184
1	1	0	0	0	0	2	408048,41	0,0100000007	2,24830294	2,7799181501432842E-005	0,010007512646780843	2,24999203E-005	-0,00038534471811560154	1,4377729534376866E-005	0,0093682002791269133
1	1	0	0	0	0	2	408738,43	0,0100000007	2,31629992	2,7798580841782192E-005	0,010007296413470163	2,31799004E-005	0,0015327733501153581	-5,7189834528491258E-005	0,011286318347357877
1	1	0	0	0	0	2	409428,44	0,0100000007	2,3639226	2,7798375958059395E-005	0,01000722265698313	2,36562992E-005	0,0034508867241356915	-0,00012875722344404949	0,013204431721378218
1	1	0	0	0	0	2	410118,45	0,0100000007	2,39982104	2,7798865693569597E-005	0,010007398958139139	2,40159661E-005	0,0053689938475180806	-0,00020032437913990192	0,015122538844760608
1	1	0	0	0	0	2	410808,47	0,0100000007	2,43004823	2,7798888870980592E-005	0,010007407301496944	2,43184822E-005	0,0072871018624054336	-0,0002718915680990032	0,017040646859647971
1	1	0	0	0	0	2	411498,48	0,0100000007	2,45601749	2,779865540946937E-005	0,010007323257320672	2,45781612E-005	0,0092052237527617856	-0,00034345927477050861	0,018958768750004307
1	1	0	0	0	0	2	412188,49	0,0100000007	2,47879767	2,7798581197650896E-005	0,010007296541114437	2,48060642E-005	0,011123327082913069	-0,00041502628893580845	0,020876872080155587
1	1	0	0	0	0	2	412878,51	0,0100000007	2,49884725	2,7798034721571539E-005	0,010007099813513848	2,5006213E-005	0,013041433839211306	-0,00048659343093525766	0,022794978836453824
1	1	0	0	0	0	2	413568,52	0,0100000007	2,51672006	2,7797783616050662E-005	0,010007009417732888	2,51848414E-005	0,01495950289529279	-0,00055815916628893133	0,024713047892535296
1	1	0	0	0	0	2	414258,53	0,0100000007	2,53256893	2,7798083670799517E-005	0,010007117435129616	2,53437156E-005	0,016877565362313514	-0,0006297246557958889	0,026631110359556022
1	1	0	0	0	0	2	414948,55	0,0100000007	2,54692817	2,7799588447850614E-005	0,010007659144670437	2,54887891E-005	0,018795687199243312	-0,00070129236047397773	0,028549232196485821
1	1	0	0	0	0	2	415638,56	0,0100000007	2,55955005	2,7798423272764515E-005	0,010007239689366518	2,56140302E-005	0,020713785092054474	-0,00077285917176480717	0,030467330089296986
1	1	0	0	0	0	2	416328,57	0,0100000007	2,57104516	2,7799472128506749E-005	0,010007617270512931	2,57300362E-005	0,022631926542725126	-0,00084442760825793818	0,032385471539967616
1	1	0	0	0	0	2	417018,59	0,0100000007	2,5812037	2,7799353918474579E-005	0,010007574715254734	2,58315886E-005	0,024550085262776733	-0,00091599668909489165	0,0343036302600192
1	1	0	0	0	0	2	417708,60	0,0100000007	2,59023547	2,7799131599720566E-005	0,010007494682044323	2,59217686E-005	0,026468230895486778	-0,0009875652816255351	0,036221775892729286
1	1	0	0	0	0	2	418398,61	0,0100000007	2,59884739	2,7799436394953069E-005	0,010007604406681296	2,60082361E-005	0,028386385459465869	-0,0010591342073938352	0,038139930456708333
1	1	0	0	0	0	2	419088,63	0,0100000007	2,60646629	2,7798604083609664E-005	0,010007304780133952	2,60837023E-005	0,030304517868839846	-0,0011307023065440312	0,040058062866082285
1	1	0	0	0	0	2	419778,64	0,0100000007	2,61341667	2,7798924645202026E-005	0,010007420180318184	2,61535588E-005	0,032222635981898118	-0,0012022698722794666	0,04197618097914057
1	1	0	0	0	0	2	420468,65	0,0100000007	2,6199472	2,7797771352964141E-005	0,010007005002873757	2,62178255E-005	0,034140740328214061	-0,0012738369243592363	0,043894285325456512
1	1	0	0	0	0	2	421158,67	0,0100000007	2,62594295	2,7799093762981811E-005	0,010007481061546643	2,62790745E-005	0,036058863560140634	-0,0013454046810865302	0,045812408557383085
1	1	0	0	0	0	2	421848,68	0,0100000007	2,63123226	2,7797928410582243E-005	0,010007061542294613	2,6330903E-005	0,037976959039645069	-0,001416971402333641	0,04773050403688752
1	1	0	0	0	0	2	422538,69	0,0100000007	2,63642597	2,779863264075377E-005	0,010007315060274886	2,63835445E-005	0,03989507286222336	-0,0014885388079854995	0,049648617859465811
1	1	0	0	0	0	2	423228,71	0,0100000007	2,64118075	2,7799213420910141E-005	0,010007524137571418	2,64316805E-005	0,041813191599426368	-0,0015601063970086141	0,051566736596668819
1	1	0	0	0	0	2	423918,72	0,0100000007	2,64543891	2,7799301106120566E-005	0,010007555703289866	2,64743776E-005	0,043731311081962906	-0,0016316740138411248	0,053484856079205357
1	1	0	0	0	0	2	424608,73	0,0100000007	2,64975429	2,7798245613877146E-005	0,010007175733748022	2,65165563E-005	0,04564941681768103	-0,0017032411177613581	0,055402961814923482
1	1	0	0	0	0	2	425298,75	0,0100000007	2,65357327	2,7798826352434442E-005	0,010007384795370184	2,65553281E-005	0,04756750170739072	-0,0017748074438889885	0,057321046704633171
1	1	0	0	0	0	2	425988,76	0,0100000007	2,65718222	2,7799638524806749E-005	0,01000767717202753	2,65922226E-005	0,049485634116016051	-0,0018463755430112515	0,059239179113258509
1	1	0	0	0	0	2	426678,77	0,0100000007	2,66065764	2,7798374783868589E-005	0,010007222234049584	2,66257921E-005	0,051403749309097402	-0,0019179429997984221	0,061157294306339853
1	1	0	0	0	0	2	427368,79	0,0100000007	2,66380811	2,7798920608487808E-005	0,010007418726663048	2,66578427E-005	0,053321841908807622	-0,0019895096135965386	0,063075386906050074
1	1	0	0	0	0	2	428058,80	0,0100000007	2,66659594	2,7797714595631178E-005	0,010006984570860298	2,66845836E-005	0,055239928153442266	-0,002061075990278241	0,064993473150684749
1	1	0	0	0	0	2	428748,81	0,0100000007	2,66974664	2,7798713616354186E-005	0,010007344211512234	2,67170744E-005	0,057157978342432333	-0,0021326410216753667	0,066911523339674778
1	1	0	0	0	0	2	429438,83	0,0100000007	2,67247725	2,7798015703447162E-005	0,010007092967586883	2,67437281E-005	0,059076048431851277	-0,0022042067955842502	0,068829593429093747
1	1	0	0	0	0	2	430128,84	0,0100000007	2,67515063	2,7796884190860304E-005	0,010006685630665866	2,67693922E-005	0,060994091157369946	-0,002275771548509224	0,07074763615461239
1	1	0	0	0	0	2	430818,85	0,0100000007	2,67765188	2,7797584921432038E-005	0,010006937889047461	2,67950963E-005	0,062912111437923315	-0,0023473354639823638	0,07266565643516576
1	1	0	0	0	0	2	431508,87	0,0100000007	2,68045902	2,7797176929190752E-005	0,010006791014668653	2,68227941E-005	0,064830122560206285	-0,0024188990377481222	0,074583667557448717
1	1	0	0	0	0	2	432198,88	0,0100000007	2,68305588	2,7797146254529555E-005	0,010006779971537277	2,68487493E-005	0,066748139014529997	-0,0024904628104594896	0,076501684011772429
1	1	0	0	0	0	2	432888,89	0,0100000007	2,68548083	2,779727387914641E-005	0,010006825915980667	2,68731401E-005	0,068666143336928858	-0,0025620261305124291	0,07841968833417129
1	1	0	0	0	0	2	433578,91	0,0100000007	2,68781042	2,7797354771600416E-005	0,010006855036353914	2,68965287E-005	0,070584139601950259	-0,0026335891499337824	0,080337684599192691
1	1	0	0	0	0	2	434268,92	0,0100000007	2,69008279	2,779737035314449E-005	0,010006860645951254	2,69192842E-005	0,072502138287892173	-0,002705152259682935	0,082255683285134605
1	1	0	0	0	0	2	434958,93	0,0100000007	2,69193506	2,7796832376314947E-005	0,010006666977555712	2,69372977E-005	0,074420160316452877	-0,0027767162403765792	0,084173705313695309
1	1	0	0	0	0	2	435648,95	0,0100000007	2,69407368	2,7796841599150662E-005	0,010006670298178606	2,69587072E-005	0,076338157875290061	-0,0028482793080719392	0,086091702872532493
1	1	0	0	0	0	2	436338,96	0,0100000007	2,69625044	2,7796748408892502E-005	0,010006636750331627	2,69803986E-005	0,078256142104794662	-0,0029198418784319782	0,088009687102037094
1	1	0	0	0	0	2	437028,97	0,0100000007	2,69836998	2,779699648482104E-005	0,010006726055480363	2,700185E-005	0,080174124587043494	-0,0029914043835995565	0,089927669584285926
1	1	0	0	0	0	2	437718,99	0,0100000007	2,70050859	2,7796461116574291E-005	0,010006533327088477	2,70227301E-005	0,082092104065604339	-0,0030629667766954963	0,091845649062846771
1	1	0	0	0	0	2	438409,00	0,0100000007	2,70253277	2,7796956783522746E-005	0,010006711763171683	2,70434666E-005	0,084010078470783923	-0,003134528980496761	0,093763623468026355
1	1	0	0	0	0	2	439099,01	0,0100000007	2,70451856	2,7796182976414762E-005	0,010006433198559011	2,70625842E-005	0,08592803330543328	-0,0032060904540952294	0,095681578302675712
1	1	0	0	0	0	2	439789,03	0,0100000007	2,70648527	2,7796204667331446E-005	0,01000644100667271	2,70822857E-005	0,087845997649415616	-0,0032776522824996973	0,097599542646658048
1	1	0	0	0	0	2	440479,04	0,0100000007	2,70828032	2,779728620344152E-005	0,010006830352175509	2,71013014E-005	0,089763979983198694	-0,0033492147821278176	0,099517524980441126
1	1	0	0	0	0	2	440678,32	0,0100000007	2,70875764	2,5795209048212403E-005	0,010006553926826826	2,71053286E-005	0,09031790903631639	-0,0033698826198651718	0,10007145403355882

File: LLTO_LP30_LTO_07_OCV_C01_loop0.mpt
EC-Lab ASCII FILE
Nb header lines : 3
mode	error	time/s	Ewe/V
3	0	440678,37	2,70694351
3	0	440738,37	2,58775306
3	0	440798,37	2,52771878
3	0	440858,37	2,48282671
3	0	440918,37	2,4463172
3	0	440978,37	2,41479158
3	0	441038,37	2,38695121
3	0	441098,37	2,36186051
3	0	441158,37	2,3388319
3	0	441218,37	2,31750298
3	0	441278,38	2,29766345
3	0	441338,38	2,27887392
3	0	441398,38	2,26096296
3	0	441458,38	2,24425483
3	0	441518,38	2,22796702
3	0	441578,38	2,212672
3	0	441638,38	2,19760609
3	0	441698,38	2,18330407
3	0	441758,38	2,16949844
3	0	441818,38	2,15611291
3	0	441878,38	2,1429565
3	0	441938,38	2,13029647
3	0	441998,38	2,1178658
3	0	442058,38	2,10583591
3	0	442118,38	2,09409261
3	0	442178,38	2,08280754
3	0	442238,38	2,07146502
3	0	442298,38	2,06054282
3	0	442358,38	2,04973507
3	0	442418,38	2,03911829
3	0	442478,38	2,02871156
3	0	442538,38	2,01857209
3	0	442598,38	2,00858545
3	0	442658,38	1,99863708
3	0	442718,38	1,98893678
3	0	442778,38	1,97952306
3	0	442838,38	1,97010922
3	0	442898,38	1,96081007
3	0	442958,38	1,95160627
3	0	443018,38	1,94266987
3	0	443078,38	1,93369532
3	0	443138,38	1,92521715
3	0	443198,38	1,91658628
3	0	443258,38	1,90801263
3	0	443318,38	1,8996681
3	0	443378,38	1,89157188
3	0	443438,38	1,88326561
3	0	443498,38	1,87511206
3	0	443558,38	1,86734045
3	0	443618,38	1,85933971
3	0	443678,38	1,85173988
3	0	443738,38	1,84404469
3	0	443798,38	1,83661675
3	0	443858,38	1,8291316
3	0	443918,38	1,82172275
3	0	443978,38	1,81437123
3	0	444038,38	1,80717242
3	0	444098,38	1,80014551
3	0	444158,38	1,79300404
3	0	444218,38	1,78612983
3	0	444278,38	1,77919841
3	0	444338,38	1,7724961
3	0	444398,38	1,76575553
3	0	444458,38	1,75897682
3	0	444518,38	1,75227451
3	0	444578,38	1,74580145
3	0	444638,38	1,73934734
3	0	444698,38	1,73310328
3	0	444758,38	1,72676373
3	0	444818,38	1,72048151
3	0	444878,38	1,71416116
3	0	444938,38	1,70826077
3	0	444998,38	1,7020359
3	0	445058,38	1,69613552
3	0	445118,39	1,69019699
3	0	445178,39	1,68433487
3	0	445238,39	1,67837727
3	0	445298,39	1,67268693
3	0	445358,39	1,66707313
3	0	445418,39	1,66145921
3	0	445478,39	1,6557498
3	0	445538,39	1,65025043
3	0	445598,39	1,64477026
3	0	445658,39	1,63946187
3	0	445718,39	1,63400066
3	0	445778,39	1,62882602
3	0	445838,39	1,62349856
3	0	445898,39	1,61826646
3	0	445958,39	1,61320639
3	0	446018,39	1,60803163
3	0	446078,39	1,60302877
3	0	446138,39	1,59793043
3	0	446198,39	1,59317577
3	0	446258,39	1,58824933
3	0	446318,39	1,58332288
3	0	446378,39	1,57839632
3	0	446438,39	1,57381356
3	0	446498,39	1,5689826
3	0	446558,39	1,5643425
3	0	446618,39	1,55979788
3	0	446678,39	1,55513871
3	0	446738,39	1,55061328
3	0	446798,39	1,54608774
3	0	446858,39	1,54156232
3	0	446918,39	1,53724682
3	0	446978,39	1,53274047
3	0	447038,39	1,5284059
3	0	447098,39	1,5241859
3	0	447158,39	1,51988959
3	0	447218,39	1,5155741
3	0	447278,39	1,5114305
3	0	447338,39	1,50726783
3	0	447398,39	1,50293326
3	0	447458,39	1,49896157
3	0	447518,39	1,4947989
3	0	447578,39	1,49088442
3	0	447638,39	1,48685539
3	0	447698,39	1,48278809
3	0	447758,39	1,47883546
3	0	447818,39	1,47497833
3	0	447878,39	1,47108293
3	0	447938,39	1,4673022
3	0	447998,39	1,46338773
3	0	448058,39	1,45972145
3	0	448118,39	1,45580709
3	0	448178,39	1,45210266
3	0	448238,39	1,44832182
3	0	448298,39	1,44463646
3	0	448358,39	1,44104671
3	0	448418,39	1,43730402
3	0	448478,39	1,4338479
3	0	448538,39	1,4302963
3	0	448598,39	1,42663002
3	0	448658,39	1,42313564
3	0	448718,39	1,41960311
3	0	448778,39	1,41614687
3	0	448838,39	1,41261435
3	0	448898,39	1,40908182
3	0	448958,40	1,40585482
3	0	449018,40	1,40243673
3	0	449078,40	1,39903784
3	0	449138,40	1,39565814
3	0	449198,40	1,39245009
3	0	449258,40	1,38903213
3	0	449318,40	1,3858242
3	0	449378,40	1,38244438
3	0	449438,40	1,37931287
3	0	449498,40	1,37599027
3	0	449558,40	1,3729161
3	0	449618,40	1,36966991
3	0	449678,40	1,36634743
3	0	449738,40	1,36325407
3	0	449798,40	1,36014152
3	0	449858,40	1,35706723
3	0	449918,40	1,35393572
3	0	449978,40	1,35093784
3	0	450038,40	1,34776807
3	0	450098,40	1,34465563
3	0	450158,40	1,3417722
3	0	450218,40	1,33867884
3	0	450278,40	1,33566189
3	0	450338,40	1,3327595
3	0	450398,40	1,32968521
3	0	450458,40	1,32670641
3	0	450518,40	1,32382309
3	0	450578,40	1,32078695
3	0	450638,40	1,31790364
3	0	450698,40	1,31515396
3	0	450758,40	1,31223249
3	0	450818,40	1,30931091
3	0	450878,40	1,30648482
3	0	450938,40	1,30354428
3	0	450998,40	1,30071819
3	0	451058,40	1,29783487
3	0	451118,40	1,29519975
3	0	451178,40	1,29237378
3	0	451238,40	1,28943312
3	0	451298,40	1,28672159
3	0	451358,40	1,28393376
3	0	451418,40	1,28129864
3	0	451478,37	1,27847266