Folder: thesis/Experimentelles/Rohdaten/Batteriemessungen/AlteZelle/150511_LLTO_LTO_Tests/ECLab-Export (part 4)

File: LLTO_LP30_LTO_02_CV_C01_loop10.mpt
EC-Lab ASCII FILE
Nb header lines : 3
mode	ox/red	error	control changes	counter inc.	time/s	control/V	Ewe/V	<I>/mA	cycle number	(Q-Qo)/C	P/W
2	1	0	1	0	8458,29	0,274492115	0,274808347	-0,74632894992828365	11	0	0,000205097429
2	1	0	0	0	8465,42	0,345797509	0,346142858	-0,092258326243609306	11	-0,00207088748	3,193456E-005
2	1	0	1	0	8472,65	0,418103009	0,418730497	0,0044363980899409792	11	-0,00229522074	1,85765521E-006
2	1	0	0	0	8479,84	0,490008503	0,490516126	0,030019477077682189	11	-0,00215816591	1,47250375E-005
2	1	0	0	0	8486,99	0,561513245	0,561849952	0,046225676982312947	11	-0,0018803787	2,59718945E-005
2	1	0	1	0	8494,14	0,633019447	0,633275449	0,062555925202711142	11	-0,00148822332	3,96151299E-005
2	1	0	0	0	8501,30	0,704524934	0,704820573	0,079358893427221798	11	-0,000976783456	5,59337823E-005
2	1	0	1	0	8508,45	0,776030421	0,77648592	0,091813633839289203	11	-0,000358047138	7,12919937E-005
2	1	0	1	0	8515,60	0,847535849	0,848061025	0,097314634496190707	11	0,000323765678	8,25287498E-005
2	1	0	0	0	8522,73	0,918841243	0,91943568	0,098974752433908186	11	0,00102792657	9,10009185E-005
2	1	0	1	0	8529,88	0,99034667	0,99077028	0,09935618688662839	11	0,00173964375	9,8439159E-005
2	1	0	0	0	8537,03	1,0618521	1,0622853	0,1007735386956483	11	0,00245815748	0,000107050248
2	1	0	0	0	8544,18	1,13335752	1,13375008	0,10353272815700621	11	0,00319225155	0,000117380237
2	1	0	1	0	8551,33	1,20486307	1,20540547	0,10617286436414952	11	0,00394436205	0,000127981359
2	1	0	0	0	8558,48	1,27636874	1,2768904	0,10911760421004163	11	0,00471770903	0,000139331227
2	1	0	1	0	8565,63	1,34787393	1,34821486	0,11017851632398845	11	0,00550672365	0,000148544306
2	1	0	1	0	8572,78	1,41937935	1,41988039	0,10981020063627466	11	0,00629778253	0,000155917354
2	1	0	0	0	8579,93	1,49088502	1,49133515	0,1103417830308897	11	0,00708741508	0,000164556579
2	1	0	1	0	8587,08	1,56239057	1,56290019	0,11348584709533814	11	0,00788836181	0,000177367052
2	1	0	0	0	8594,23	1,63389564	1,63426483	0,12148960349926098	11	0,00872995798	0,000198546186
2	1	0	0	0	8601,38	1,7054013	1,70574987	0,13188915296147275	11	0,00963770691	0,000224969903
2	1	0	1	0	8608,53	1,77690685	1,77753544	0,14267192264863526	11	0,0106218923	0,000253604405
2	1	0	0	0	8615,68	1,84841228	1,84910071	0,15351378397705638	11	0,0116840554	0,000283862435
2	1	0	0	0	8622,84	1,91991746	1,92058468	0,16393386944831923	11	0,0128223393	0,000314848876
2	1	0	1	0	8629,99	1,99142313	1,99198031	0,17372536581630582	11	0,0140337115	0,000346057495
2	1	0	0	0	8637,14	2,06292868	2,06368566	0,18296800134703562	11	0,015313399	0,00037758844
2	1	0	1	0	8644,29	2,13443398	2,1350503	0,19191555306315379	11	0,01665668	0,000409749366
2	1	0	1	0	8651,44	2,20593953	2,20637488	0,19961590187934509	11	0,0180598665	0,00044042751
2	1	0	0	0	8658,59	2,27744484	2,27784991	0,20659572553510496	11	0,0195176136	0,000470594066
2	1	0	1	0	8665,74	2,34895039	2,34952521	0,21485209123541882	11	0,0210281238	0,00050480041
2	1	0	0	0	8672,89	2,42045593	2,42093968	0,2227286954876031	11	0,0225954149	0,00053921272
2	1	0	0	0	8680,04	2,49196124	2,49258518	0,23121140004756579	11	0,0242215227	0,000576314109
2	1	0	1	0	8687,19	2,56346679	2,56412029	0,23980311102544282	11	0,0259078946	0,000614884018
2	1	0	0	0	8694,34	2,63497233	2,63566542	0,24836773712498416	11	0,0276570078	0,000654614239
2	1	0	1	0	8701,49	2,70647764	2,70719028	0,2568367220616592	11	0,0294681508	0,000695305876
2	1	0	1	0	8708,64	2,77798319	2,77859521	0,26801655162125827	11	0,0313457362	0,000744709512
2	1	0	0	0	8715,79	2,84948874	2,85042095	0,28501337704559155	11	0,0333237201	0,000812408107
2	1	0	1	0	8722,94	2,92099428	2,92135453	0,30444547029522483	11	0,0354322158	0,000889393152
2	1	0	0	0	8730,09	2,99249959	2,99315023	0,3300446309925369	11	0,0377008393	0,00098787318
2	1	0	0	0	8737,24	3,06400514	3,06482553	0,36131386055300666	11	0,0401721895	0,00110736396
2	1	0	1	0	8744,39	3,13551044	3,13609982	0,39924923842772666	11	0,0428913608	0,00125208544
2	1	0	0	0	8751,55	3,20701599	3,20757461	0,44486300135031251	11	0,0459100828	0,00142693124
2	1	0	1	0	8758,70	3,27852178	3,27919936	0,49738324700207315	11	0,0492761731	0,00163101882
2	1	0	1	0	8765,85	3,35002685	3,35051441	0,56256931181997152	11	0,0530606695	0,00188489654
2	1	0	0	0	8773,00	3,42153215	3,42216992	0,64224527031183066	11	0,0573631153	0,00219787238
2	1	0	1	0	8780,15	3,4930377	3,49353456	0,73184643670295552	11	0,0622751564	0,00255673076
2	1	0	1	0	8787,30	3,56454325	3,56544042	0,83258000148932429	11	0,0678651705	0,00296851434
2	1	0	0	0	8794,45	3,63604856	3,6366148	0,93503269925713536	11	0,0741945878	0,00340035371
2	1	0	1	0	8801,64	3,70795417	3,70895147	1,024213094264267	11	0,0812497735	0,00379875675
2	1	0	0	0	8808,79	3,77945971	3,78012562	1,1060923005764672	11	0,0888699889	0,00418116804
2	1	0	1	0	8815,94	3,85096598	3,8518219	1,1876824897383126	11	0,0970729366	0,00457474124
2	1	0	1	0	8823,09	3,92247057	3,92334628	1,274084933723013	11	0,105871961	0,00499867648
2	1	0	0	0	8830,24	3,99397612	3,99475121	1,3760158782824874	11	0,115336798	0,00549684092
2	1	0	1	0	8837,39	4,06548166	4,06628656	1,4942659245183059	11	0,125594795	0,00607611332
2	1	0	1	0	8844,54	4,13698721	4,13781929	1,6224778538367488	11	0,136730164	0,00671352027
2	0	0	0	1	8851,62	4,19219112	4,19311619	1,6119003730515581	11	0,148713171	0,00675888546
2	0	0	1	1	8858,77	4,12068558	4,12141085	0,80726132635027174	11	0,156994984	0,0033270556
2	0	0	0	1	8865,96	4,04877996	4,04938459	0,4025757435398791	11	0,161183417	0,00163018401
2	0	0	1	1	8873,11	3,97727489	3,97783995	0,19144809579787104	11	0,163225591	0,000761549862
2	0	0	1	1	8880,27	3,90576887	3,90628338	0,073902808985173875	11	0,164132327	0,000288685318
2	0	0	0	1	8887,50	3,83346367	3,83418822	0,0027844344513141549	11	0,164387032	1,06760453E-005
2	0	0	1	1	8894,69	3,76155853	3,76203156	-0,043042783431398387	11	0,164230675	0,000161928314
2	0	0	0	1	8901,84	3,69005299	3,69085741	-0,076600475003943066	11	0,163795441	0,000282721419
2	0	0	0	1	8909,03	3,61814642	3,61898923	-0,10385392604262909	11	0,163140193	0,000375846226
2	0	0	1	1	8916,18	3,54664207	3,54753637	-0,12787560792639829	11	0,162306085	0,000453643384
2	0	0	0	1	8923,33	3,47513652	3,47576094	-0,14716011219813242	11	0,161316946	0,000511493359
2	0	0	1	1	8930,48	3,40363073	3,40420604	-0,16265196613191302	11	0,160203829	0,000553700782
2	0	0	1	1	8937,63	3,33212566	3,33260059	-0,17542973680732166	11	0,158991829	0,000584637222
2	0	0	0	1	8944,78	3,26061988	3,26131654	-0,1864626663736999	11	0,157693371	0,000608113769
2	0	0	1	1	8951,93	3,18911433	3,18965077	-0,19811638685253818	11	0,156314358	0,000631922099
2	0	0	0	1	8959,08	3,11760926	3,1180861	-0,21020777414863245	11	0,154851794	0,000655445911
2	0	0	0	1	8966,23	3,04610372	3,04677129	-0,22389655692192445	11	0,153297946	0,000682161597
2	0	0	1	1	8973,38	2,97459841	2,97511578	-0,23786331014707773	11	0,151644737	0,000707670872
2	0	0	0	1	8980,53	2,90309286	2,90396214	-0,25017619132995539	11	0,149894401	0,000726502214
2	0	0	1	1	8987,68	2,83158755	2,83208609	-0,26047360245138496	11	0,148062572	0,000737683673
2	0	0	1	1	8994,83	2,76008201	2,76079154	-0,26506868276434714	11	0,146177799	0,000731799402
2	0	0	0	1	9001,98	2,68857646	2,68882537	-0,26576290209777654	11	0,144275352	0,000714590016
2	0	0	1	1	9009,14	2,61707091	2,61764145	-0,26553558302111923	11	0,142373279	0,000695076946
2	0	0	1	1	9016,29	2,54556584	2,54615617	-0,26563332216890333	11	0,140472025	0,000676343916
2	0	0	0	1	9023,44	2,47406006	2,47463155	-0,2667454567272225	11	0,138565928	0,000660096703
2	0	0	1	1	9030,59	2,40255451	2,40334678	-0,26843379111960531	11	0,136649475	0,000645139487
2	0	0	0	1	9037,74	2,33104897	2,33133054	-0,26956563085938611	11	0,134722561	0,000628446578
2	0	0	0	1	9044,89	2,2595439	2,26010609	-0,26999505562707872	11	0,132789552	0,000610217452
2	0	0	1	1	9052,04	2,18803811	2,18855119	-0,26955243929599738	11	0,13085711	0,000589929288
2	0	0	0	1	9059,19	2,1165328	2,11706638	-0,26699570100754477	11	0,128935963	0,00056524761
2	0	0	1	1	9066,34	2,04502726	2,04551125	-0,26343503997971674	11	0,127035648	0,000538859342
2	0	0	1	1	9073,49	1,97352183	1,97389591	-0,26082119764760138	11	0,125158116	0,000514833897
2	0	0	0	1	9080,64	1,9020164	1,90299237	-0,25840264512225965	11	0,123299405	0,000491738261
2	0	0	1	1	9087,79	1,83051097	1,83085585	-0,2566517189455535	11	0,121455126	0,000469892286
2	0	0	0	1	9094,94	1,75900543	1,75978196	-0,25477975785421837	11	0,119623773	0,000448356819
2	0	0	0	1	9102,09	1,68749988	1,68792617	-0,2530533263925472	11	0,117805377	0,000427135325
2	0	0	1	1	9109,24	1,61599457	1,61638105	-0,25351640116423414	11	0,115992121	0,00040977911
2	0	0	0	1	9116,39	1,54448915	1,54500639	-0,25656887368920067	11	0,11416658	0,000396400545
2	0	0	1	1	9123,54	1,4729836	1,47336125	-0,26213290876088058	11	0,112310082	0,000386216474
2	0	0	1	1	9130,69	1,40147805	1,40216696	-0,26885728895043302	11	0,110408671	0,000376982818
2	0	0	0	1	9137,85	1,32997274	1,33041143	-0,27640417132837158	11	0,108455285	0,000367731263
2	0	0	1	1	9145,00	1,2584672	1,25884616	-0,28225573369612355	11	0,106454648	0,000355316559
2	0	0	1	1	9152,15	1,18696177	1,18731117	-0,28642461340253523	11	0,104417704	0,000340075145
2	0	0	0	1	9159,30	1,11545622	1,11585629	-0,292260474758224	11	0,102346085	0,000326120702
2	0	0	1	1	9166,45	1,04395068	1,04427123	-0,30201568718378848	11	0,100221463	0,000315386307
2	0	0	0	1	9173,60	0,972445369	0,972645879	-0,31931846775114534	11	0,0980021507	0,000310583797
2	0	0	0	1	9180,75	0,900939941	0,901381552	-0,34641324814098605	11	0,0956243798	0,000312250515
2	0	0	1	1	9187,90	0,829434454	0,829846501	-0,37890485581010534	11	0,0930257961	0,000314432866
2	0	0	0	1	9195,05	0,757929027	0,758421719	-0,40569369758789798	11	0,0902113989	0,000307686918
2	0	0	1	1	9202,20	0,68642354	0,686826527	-0,4240404803616329	11	0,0872379541	0,000291242264
2	0	0	1	1	9209,35	0,614918113	0,615191221	-0,44191065104678272	11	0,0841416344	0,00027185955
2	0	0	0	1	9216,50	0,543412626	0,543646097	-0,46907912924264928	11	0,0808888152	0,00025501303
2	0	0	1	1	9223,65	0,471907139	0,472161263	-0,50794310231382592	11	0,0773996189	0,000239831061
2	0	0	0	1	9230,80	0,400401682	0,400736451	-0,55741171787182611	11	0,0735956579	0,000223375187
2	0	0	0	1	9237,95	0,328896224	0,329291612	-0,62885104694093389	11	0,0693691969	0,000207075369
2	0	0	1	1	9243,45	0,273892075	0,274006397	-0,71151107549667354	11	0,0656961054	0,000194958586

File: LLTO_LP30_LTO_05_GCPL_C01_loop5.mpt
EC-Lab ASCII FILE
Nb header lines : 3
mode	ox/red	error	control changes	Ns changes	counter inc.	Ns	time/s	control/V/mA	Ewe/V	dq/mA.h	<I>/mA	P/W	(Q-Qo)/mA.h	x	Capacity/mA.h
1	0	0	1	1	0	1	203052,67	-0,0100000007	2,59785438	0	0	0	0	0	0
1	0	0	1	0	0	1	203742,67	-0,0100000007	1,85911059	-2,7757395633599827E-005	-0,0099926608646223104	1,85774625E-005	-0,001915124905027216	7,1455885119385702E-005	0,001915124905027216
1	0	0	1	0	0	1	204432,67	-0,0100000007	1,50539649	-2,7756697454438029E-005	-0,0099924095201633869	1,50425385E-005	-0,0038303554875104819	0,00014291571320674149	0,0038303554875104819
1	0	0	1	0	0	1	205122,67	-0,0100000007	1,26420879	-2,7757062264355936E-005	-0,0099925408517132864	1,26326577E-005	-0,005745586059184768	0,00021437554089079971	0,005745586059184768
1	0	0	1	0	0	1	205812,67	-0,0100000007	1,07199943	-2,7756453310242957E-005	-0,0099923216282669146	1,0711763E-005	-0,0076608111542177907	0,00028583516423400896	0,0076608111542177907
1	0	0	1	0	0	1	206502,67	-0,0100000007	0,906217396	-2,7757977414617523E-005	-0,0099928703057559117	9,05571324E-006	-0,0095760712656278554	0,0003572960940853257	0,0095760712656278554
1	1	0	0	0	0	2	207180,74	0,0100000007	1,54705524	2,7795751153646659E-005	0,010006468849678742	1,54805603E-005	-0,0078473088320619136	0,00029279364334316787	0,0018066833739405392
1	1	0	0	0	0	2	207870,74	0,0100000007	1,90281236	2,7795410937836602E-005	0,010006346372006285	1,90401988E-005	-0,0059294329605932186	0,0002212351159671369	0,0037245592454092378
1	1	0	0	0	0	2	208560,74	0,0100000007	2,11203527	2,7795364966046893E-005	0,010006329822164579	2,1133721E-005	-0,004011542093161623	0,00014967602907156778	0,0056424501128408326
1	1	0	0	0	0	2	209250,74	0,0100000007	2,22582841	2,7795675124662618E-005	0,01000644147924877	2,22726212E-005	-0,0020936511577331309	7,8116939638943027E-005	0,0075603410482693222
1	1	0	0	0	0	2	209940,74	0,0100000007	2,29504728	2,779505965237816E-005	0,010006219909261032	2,29647485E-005	-0,0001757567582710177	6,5577209585664128E-006	0,0094782354477314368
1	1	0	0	0	0	2	210630,74	0,0100000007	2,34013033	2,7794950895684048E-005	0,010006180756857277	2,34157669E-005	0,0017421005715014573	-6,5000114601849062E-005	0,011396092777503912
1	1	0	0	0	0	2	211320,74	0,0100000007	2,36953664	2,7794108263165174E-005	0,010005877409197944	2,37092936E-005	0,003659915001653833	-0,00013655634951975949	0,013313907207656298
1	1	0	0	0	0	2	212010,74	0,0100000007	2,39019728	2,7793475882201974E-005	0,010005649752086813	2,3915476E-005	0,0055776792780673907	-0,00020811071313424214	0,015231671484069856
1	1	0	0	0	0	2	212700,74	0,0100000007	2,40604615	2,7792683474616045E-005	0,010005364485400512	2,4073368E-005	0,007495400817661984	-0,00027966348218054906	0,017149393023664454
1	1	0	0	0	0	2	213390,74	0,0100000007	2,41967988	2,7791661626659334E-005	0,010004996620659547	2,42088881E-005	0,009413091740497929	-0,00035121510887442605	0,019067083946500406
1	1	0	0	0	0	2	214080,74	0,0100000007	2,43121314	2,7792143975901936E-005	0,010005170265893821	2,43247014E-005	0,011330772357074261	-0,00042276635102789997	0,02098476456307673
1	1	0	0	0	0	2	214770,74	0,0100000007	2,44146705	2,779278222274863E-005	0,01000540003472268	2,44278544E-005	0,01324846611481557	-0,00049431808349590778	0,022902458320818016
1	1	0	0	0	0	2	215460,74	0,0100000007	2,45017433	2,7792567060070317E-005	0,010005322576170606	2,45147839E-005	0,015166182423861942	-0,00056587065738342784	0,024820174629864387
1	1	0	0	0	0	2	216150,74	0,0100000007	2,45838523	2,7793644215601187E-005	0,010005710352101046	2,45978899E-005	0,017083909635048698	-0,000637423638044464	0,026737901841051142
1	1	0	0	0	0	2	216840,74	0,0100000007	2,4659276	2,77930490984064E-005	0,010005496109944445	2,46728287E-005	0,019001686050269229	-0,00070897845457415565	0,028655678256271674
1	1	0	0	0	0	2	217530,74	0,0100000007	2,4726491	2,7793758804133782E-005	0,010005751603966326	2,47407133E-005	0,020919447785172509	-0,00078053272336147277	0,03057343999117495
1	1	0	0	0	0	2	218220,74	0,0100000007	2,4785111	2,7793783011742762E-005	0,010005760318704197	2,47993885E-005	0,022837238267758563	-0,00085208806476348595	0,032491230473760992
1	1	0	0	0	0	2	218910,74	0,0100000007	2,48433518	2,7793504549449101E-005	0,010005660072294165	2,48574142E-005	0,024754998366701222	-0,00092364227251091264	0,034408990572703648
1	1	0	0	0	0	2	219600,74	0,0100000007	2,4894526	2,779332861666464E-005	0,010005596736501667	2,49084587E-005	0,026672758167426688	-0,0009951964691314551	0,03632675037342912
1	1	0	0	0	0	2	220290,74	0,0100000007	2,49414992	2,779356960626319E-005	0,010005683492743571	2,49556742E-005	0,028590508097344112	-0,0010667502974588778	0,038244500303346515
1	1	0	0	0	0	2	220980,74	0,0100000007	2,49836993	2,7793665783014147E-005	0,010005718116368498	2,49979857E-005	0,030508225733241171	-0,0011383029208529813	0,040162217939243546
1	1	0	0	0	0	2	221670,74	0,0100000007	2,50228429	2,7793640403180483E-005	0,01000570897962981	2,50371286E-005	0,032426000319357274	-0,0012098576691363274	0,042079992525359622
1	1	0	0	0	0	2	222360,74	0,0100000007	2,50612235	2,7794246385236166E-005	0,010005927133135722	2,50760768E-005	0,034343765244771738	-0,0012814120569659064	0,04399775745077408
1	1	0	0	0	0	2	223050,74	0,0100000007	2,50934958	2,7793588949419142E-005	0,010005690456278626	2,51077745E-005	0,036261552378108928	-0,0013529672734029414	0,045915544584111277
1	1	0	0	0	0	2	223740,74	0,0100000007	2,51299667	2,7793867087250368E-005	0,010005790585882198	2,51445181E-005	0,038179318936851142	-0,0014245217221741747	0,047833311142853491
1	1	0	0	0	0	2	224430,74	0,0100000007	2,51631904	2,7794623694123907E-005	0,010006062964314058	2,51784459E-005	0,040097128072855994	-0,0014960777595603232	0,049751120278858342
1	1	0	0	0	0	2	225120,74	0,0100000007	2,51952696	2,7794184747100291E-005	0,010005904943410278	2,52101472E-005	0,042014930497332371	-0,00156763354653032	0,051668922703334714
1	1	0	0	0	0	2	225810,74	0,0100000007	2,52242947	2,7794043409845066E-005	0,01000585406200636	2,52390619E-005	0,043932698587222029	-0,0016391880524307232	0,053586690793224371
1	1	0	0	0	0	2	226500,74	0,0100000007	2,52535105	2,7794350149523878E-005	0,010005964488273454	2,52685732E-005	0,045850503107827699	-0,0017107439176101229	0,055504495313830042
1	1	0	0	0	0	2	227190,74	0,0100000007	2,52825356	2,7794903212019965E-005	0,010006163590740893	2,5298119E-005	0,047768320649959539	-0,0017823002686401712	0,057422312855961882
1	1	0	0	0	0	2	227880,75	0,0100000007	2,53056383	2,779420813985376E-005	0,010005913364800211	2,53206017E-005	0,049686109609662688	-0,0018538555532213754	0,059340101815665024
1	1	0	0	0	0	2	228570,75	0,0100000007	2,53342819	2,7794207823773229E-005	0,010005913251011235	2,53492635E-005	0,051603904073906637	-0,0019254110431843981	0,061257896279908979
1	1	0	0	0	0	2	229260,75	0,0100000007	2,53577685	2,7794239319395277E-005	0,010005924589433398	2,53727922E-005	0,053521680068584384	-0,001996965844023073	0,063175672274586726
1	1	0	0	0	0	2	229950,75	0,0100000007	2,53858376	2,7794972949350877E-005	0,010006188696176093	2,54015486E-005	0,055439522593517165	-0,0020685231271950141	0,065093514799519565
1	1	0	0	0	0	2	230640,75	0,0100000007	2,54102802	2,7794159162427402E-005	0,01000589573292948	2,54252609E-005	0,057357363000123981	-0,0021400803313293654	0,067011355206126374
1	1	0	0	0	0	2	231330,75	0,0100000007	2,54333854	2,7794994047480739E-005	0,010006196291501654	2,54491442E-005	0,059275216360624256	-0,0022116380187908986	0,068929208566626688
1	1	0	0	0	0	2	232020,75	0,0100000007	2,54553437	2,7795824447336294E-005	0,010006495235402882	2,5471878E-005	0,061193094324230899	-0,0022831966242274093	0,070847086530233357
1	1	0	0	0	0	2	232710,75	0,0100000007	2,54776835	2,7795471840124163E-005	0,010006368296826376	2,54939077E-005	0,06311098861351008	-0,0023547558387967126	0,072764980819512474
1	1	0	0	0	0	2	233400,75	0,0100000007	2,5498116	2,7795638860565507E-005	0,010006428424175851	2,55145078E-005	0,065028877240587827	-0,0024263148421016672	0,074682869446590221
1	1	0	0	0	0	2	234090,75	0,0100000007	2,55174017	2,7795690830020854E-005	0,01000644713317685	2,55338527E-005	0,066946769736282598	-0,0024978739897499248	0,076600761942284992
1	1	0	0	0	0	2	234780,75	0,0100000007	2,55403161	2,7794734097137632E-005	0,010006102709392778	2,55559025E-005	0,068864676074526797	-0,0025694336538823133	0,078518668280529203
1	1	0	0	0	0	2	235470,75	0,0100000007	2,55626559	2,7794431612775146E-005	0,01000599381503932	2,55779778E-005	0,070782537051225754	-0,0026409916255144586	0,080436529257228147
1	1	0	0	0	0	2	236160,75	0,0100000007	2,55834699	2,7795383486793274E-005	0,010006336489632232	2,55996802E-005	0,072700416867238106	-0,0027125503000667168	0,082354409073240499
1	1	0	0	0	0	2	236850,75	0,0100000007	2,56042838	2,7795532656988752E-005	0,010006390190894202	2,56206458E-005	0,074618314569361984	-0,0027841096419738442	0,084272306775364378
1	1	0	0	0	0	2	237540,75	0,0100000007	2,56250978	2,7795674214760464E-005	0,010006441151684045	2,56416024E-005	0,076536233514309709	-0,0028556697764792915	0,086190225720312115
1	1	0	0	0	0	2	238230,75	0,0100000007	2,56447649	2,7795702376506397E-005	0,010006451289910994	2,56613093E-005	0,07845414037466025	-0,002927229460092169	0,088108132580662643
1	1	0	0	0	0	2	238920,75	0,0100000007	2,5666914	2,7795992365779562E-005	0,010006555686033	2,56837411E-005	0,080372054385218752	-0,002998789410488919	0,090026046591221158
1	1	0	0	0	0	2	239610,75	0,0100000007	2,56844831	2,779499203365089E-005	0,010006195566523024	2,57003958E-005	0,082289959225159898	-0,0030703490187176058	0,091943951431162291
1	1	0	0	0	0	2	240300,75	0,0100000007	2,57052946	2,7796485451567504E-005	0,010006733196888886	2,5722602E-005	0,084207873100516685	-0,0031419089640697978	0,093861865306519078
1	1	0	0	0	0	2	240990,75	0,0100000007	2,57219076	2,7795496322369824E-005	0,010006377110433434	2,57383108E-005	0,086125771562977165	-0,0032134683343461069	0,095779763768979558
1	1	0	0	0	0	2	241680,75	0,0100000007	2,57411933	2,7796094922038416E-005	0,010006592606280411	2,57581632E-005	0,088043677455858099	-0,0032850279818613926	0,097697669661860493
1	1	0	0	0	0	2	242370,75	0,0100000007	2,57566619	2,7795175716073974E-005	0,010006261692184987	2,57727897E-005	0,089961596448987712	-0,0033565881181645702	0,099615588654990106
1	1	0	0	0	0	2	242530,75	0,0100000007	2,57610536	2,7795131953381414E-005	0,010006245937618131	2,57771444E-005	0,090406321592933696	-0,0033731814112245107	0,1000603137989361