Folder: thesis/Experimentelles/Rohdaten/Batteriemessungen/AlteZelle/150511_LLTO_LTO_Tests/ZView-Export (part 2)

File: LLTO_LP30_LTO_05_GCPL_C01_loop6.txt
EC-Lab ASCII FILE
Nb header lines : 3
mode	ox/red	error	control changes	Ns changes	counter inc.	Ns	time/s	control/V/mA	Ewe/V	dq/mA.h	<I>/mA	P/W	(Q-Qo)/mA.h	x	Capacity/mA.h
1	0	0	1	1	0	1	242530,80	-0,0100000007	2,57484508	0	0	0	0	0	0
1	0	0	1	0	0	1	243230,80	-0,0100000007	1,81005573	-2,7756758984695706E-005	-0,0099924316710526848	1,80868574E-005	-0,001942864328724841	7,2490880313595942E-005	0,001942864328724841
1	0	0	1	0	0	1	243930,80	-0,0100000007	1,47001362	-2,7756605955151222E-005	-0,0099923765804252915	1,46889297E-005	-0,003885848949261207	0,00014498624887641395	0,003885848949261207
1	0	0	1	0	0	1	244630,80	-0,0100000007	1,25603616	-2,7757061157737757E-005	-0,0099925404533308045	1,25509923E-005	-0,0058288188663104269	0,00021748106883235747	0,0058288188663104269
1	0	0	1	0	0	1	245330,80	-0,0100000007	1,09290838	-2,7757156400268691E-005	-0,0099925747406365747	1,09209686E-005	-0,0077718061289076301	0,00028997653597401754	0,0077718061289076301
1	0	0	1	0	0	1	246030,80	-0,0100000007	0,951147735	-2,7758545839641658E-005	-0,0099930749387325811	9,50489084E-006	-0,0097148234906687027	0,00036247312615595034	0,0097148234906687027
1	1	0	0	0	0	2	246713,25	0,0100000007	1,33420432	2,7795086459101485E-005	0,01000622955967992	1,33503545E-005	-0,0093870730327308186	0,00035024431590511053	0,0011117941098100406
1	1	0	0	0	0	2	247413,25	0,0100000007	1,72351122	2,7794205056865597E-005	0,010005912254924646	1,72453019E-005	-0,0074414352615088563	0,00027764995472301395	0,0030574318810320045
1	1	0	0	0	0	2	248113,25	0,0100000007	1,96989286	2,779471633029688E-005	0,010006096313331107	1,97109384E-005	-0,0054958032457266054	0,0002050558082841112	0,0050030638968142566
1	1	0	0	0	0	2	248813,25	0,0100000007	2,11594987	2,7794324511144723E-005	0,010005955258458403	2,11720999E-005	-0,0035502141987469229	0,00013246326506900446	0,0069486529437939405
1	1	0	0	0	0	2	249513,25	0,0100000007	2,20470929	2,7794799058025498E-005	0,010006126095308752	2,20605998E-005	-0,0016046288563647904	5,9870860077413222E-005	0,0088942382861760717
1	1	0	0	0	0	2	250213,25	0,0100000007	2,2646482	2,7794435706662221E-005	0,010005995288838437	2,26600587E-005	0,00034097636653710861	-1,272228668310015E-005	0,010839843509077968
1	1	0	0	0	0	2	250913,25	0,0100000007	2,30644703	2,7794637158461328E-005	0,01000606781147477	2,30784663E-005	0,0022865932664564429	-8,5315869128833958E-005	0,012785460408997299
1	1	0	0	0	0	2	251613,25	0,0100000007	2,33528042	2,7795054662351808E-005	0,010006218112851826	2,33673254E-005	0,0042322380112765581	-0,00015791049050525376	0,014731105153817414
1	1	0	0	0	0	2	252313,25	0,0100000007	2,35731578	2,779415658230169E-005	0,01000589480408437	2,35870539E-005	0,0061778526493234317	-0,0002305039885574849	0,016676719791864291
1	1	0	0	0	0	2	253013,25	0,0100000007	2,37543702	2,7794294697284285E-005	0,010005944525936262	2,37684908E-005	0,0081234640255317888	-0,00030309736490613549	0,01862233116807265
1	1	0	0	0	0	2	253713,25	0,0100000007	2,39090371	2,7793948588323677E-005	0,010005819926264	2,39229521E-005	0,01006907432597317	-0,00037569070111647373	0,020567941468514026
1	1	0	0	0	0	2	254413,25	0,0100000007	2,40463305	2,7794769235938374E-005	0,010006115359359067	2,40610352E-005	0,0120146668311788	-0,00044828337336264019	0,02251353397371967
1	1	0	0	0	0	2	255113,25	0,0100000007	2,41687274	2,7794298406949059E-005	0,010005945860949434	2,41830985E-005	0,013960262931491878	-0,00052087617974709926	0,024459130074032742
1	1	0	0	0	0	2	255813,25	0,0100000007	2,42811966	2,7793695083094966E-005	0,010005728664395942	2,42951064E-005	0,01590585652357009	-0,00059346889254594304	0,026404723666110966
1	1	0	0	0	0	2	256513,25	0,0100000007	2,43856478	2,7793956654767194E-005	0,010005822830183211	2,43998475E-005	0,01785144140656008	-0,00066606128039699584	0,028350308549100957
1	1	0	0	0	0	2	257213,25	0,0100000007	2,44788289	2,7794407926499846E-005	0,010005985287981549	2,44934799E-005	0,019797030954796355	-0,00073865384231465997	0,030295898097337235
1	1	0	0	0	0	2	257913,25	0,0100000007	2,45548272	2,779413154374601E-005	0,010005885790205734	2,4569279E-005	0,02174261367573025	-0,0008112461494964928	0,032241480818271123
1	1	0	0	0	0	2	258613,25	0,0100000007	2,46279621	2,7794530391175715E-005	0,010006029375257963	2,46428117E-005	0,023688192522870778	-0,00088383831214188698	0,034187059665411661
1	1	0	0	0	0	2	259313,25	0,0100000007	2,47012854	2,7793830506917504E-005	0,010005777416964429	2,47155567E-005	0,025633765534068237	-0,00095643025704039846	0,036132632676609088
1	1	0	0	0	0	2	260013,25	0,0100000007	2,4769454	2,7794692174634995E-005	0,010006087617294192	2,47845328E-005	0,027579359531829584	-0,0010290229849758256	0,038078226674370426
1	1	0	0	0	0	2	260713,25	0,0100000007	2,48309398	2,7793574774948259E-005	0,010005685353469904	2,48450579E-005	0,029524948170798906	-0,0011016155129675171	0,040023815313339776
1	1	0	0	0	0	2	261413,25	0,0100000007	2,48874617	2,7793416257999424E-005	0,010005628287377253	2,49014684E-005	0,031470511530581773	-0,0011742070977587738	0,041969378673122656
1	1	0	0	0	0	2	262113,25	0,0100000007	2,494169	2,7793706856409296E-005	0,010005732902788438	2,49559889E-005	0,03341609677795209	-0,0012467994992053466	0,043914963920492973
1	1	0	0	0	0	2	262813,27	0,0100000007	2,49905729	2,7794629214952387E-005	0,010005873855202662	2,50052526E-005	0,035361722912863603	-0,001319393426221055	0,045860590055404486
1	1	0	0	0	0	2	263513,28	0,0100000007	2,50417471	2,7794657311919664E-005	0,01000588396968316	2,50564808E-005	0,037307376634394784	-0,0013919883825306342	0,047806243776935667
1	1	0	0	0	0	2	264213,29	0,0100000007	2,50904393	2,7794811823250102E-005	0,010005939592924066	2,51053425E-005	0,03925301811446201	-0,0014645828820947341	0,049751885257002893
1	1	0	0	0	0	2	264913,31	0,0100000007	2,51349306	2,7794539133035062E-005	0,010005841425870915	2,51496131E-005	0,041198651082631846	-0,0015371770640684982	0,05169751822517273
1	1	0	0	0	0	2	265613,32	0,0100000007	2,51777029	2,779470001000704E-005	0,010005899340465683	2,51925558E-005	0,043144256361014931	-0,0016097702128990893	0,053643123503555814
1	1	0	0	0	0	2	266313,33	0,0100000007	2,52183747	2,779452113620937E-005	0,010005834947604336	2,52330901E-005	0,045089868789676371	-0,0016823636285161792	0,055588735932217254
1	1	0	0	0	0	2	267013,35	0,0100000007	2,52603841	2,7795390023849907E-005	0,010006147740899152	2,52759128E-005	0,04703546633832377	-0,0017549564889399392	0,057534333480864653
1	1	0	0	0	0	2	267713,36	0,0100000007	2,52987647	2,779424206674513E-005	0,010005734484531619	2,5313273E-005	0,048981092675431738	-0,0018275504234998691	0,059479959817972621
1	1	0	0	0	0	2	268413,37	0,0100000007	2,53308439	2,7795092050244826E-005	0,010006040472466768	2,53461458E-005	0,050926707842580442	-0,0019001439412936013	0,061425574985121331
1	1	0	0	0	0	2	269113,39	0,0100000007	2,53634977	2,7794508807154166E-005	0,010005830509229923	2,53782855E-005	0,052872339485428723	-0,0019727380738178358	0,063371206627969638
1	1	0	0	0	0	2	269813,40	0,0100000007	2,53969121	2,7795201152977018E-005	0,010006079748461128	2,54123534E-005	0,054817977967368486	-0,0020453324615177693	0,065316845109909325
1	1	0	0	0	0	2	270513,41	0,0100000007	2,54265094	2,7794781994902426E-005	0,010005928854459733	2,54415845E-005	0,056763601258049555	-0,002117926282411416	0,067262468400590374
1	1	0	0	0	0	2	271213,43	0,0100000007	2,54633641	2,7795314498142234E-005	0,010006120552400875	2,54789484E-005	0,058709251545794624	-0,0021905211106018179	0,069208118688335411
1	1	0	0	0	0	2	271913,44	0,0100000007	2,54967785	2,7795206993663062E-005	0,010006081851300587	2,5512285E-005	0,06065491913669719	-0,0022631165843962912	0,071153786279238016
1	1	0	0	0	0	2	272613,45	0,0100000007	2,55256128	2,7794729406324528E-005	0,010005909923402141	2,55406976E-005	0,062600569963861274	-0,0023357114327131424	0,073099437106402125
1	1	0	0	0	0	2	273313,47	0,0100000007	2,55513906	2,7795462294636915E-005	0,010006173757765034	2,55671657E-005	0,06454621392937879	-0,0024083060250127344	0,075045081071919642
1	1	0	0	0	0	2	274013,48	0,0100000007	2,55815601	2,7794889684404349E-005	0,010005967622399888	2,55968262E-005	0,066491855935064192	-0,0024809005441883552	0,076990723077605043
1	1	0	0	0	0	2	274713,49	0,0100000007	2,56111574	2,7795078127748435E-005	0,010006035460231606	2,56266158E-005	0,068437503454183552	-0,0025534952690776099	0,078936370596724403
1	1	0	0	0	0	2	275413,51	0,0100000007	2,56283426	2,7795191297048912E-005	0,010006076200395328	2,56439143E-005	0,070383162405033254	-0,0026260904205000938	0,080882029547574106
1	1	0	0	0	0	2	276113,52	0,0100000007	2,56483936	2,7795726564040202E-005	0,010006268893267853	2,56644726E-005	0,07232881235905705	-0,0026986852362389072	0,082827679501597901
1	1	0	0	0	0	2	276813,53	0,0100000007	2,56753159	2,7795767382563405E-005	0,010006283587420294	2,569145E-005	0,074274489602528614	-0,0027712810701837069	0,084773356745069453
1	1	0	0	0	0	2	277513,55	0,0100000007	2,57016683	2,7796421560044918E-005	0,010006519087012093	2,57184238E-005	0,076220209751671398	-0,0028438785049967882	0,08671907689421225
1	1	0	0	0	0	2	278213,56	0,0100000007	2,57293558	2,779603110279681E-005	0,010006378524759818	2,57457668E-005	0,078165900630336422	-0,0029164748476889888	0,088664767772877274
1	1	0	0	0	0	2	278913,58	0,0100000007	2,57530332	2,7795589497312902E-005	0,010006219550196122	2,57690499E-005	0,08011161094777751	-0,0029890719156680602	0,090610478090318362
1	1	0	0	0	0	2	279613,59	0,0100000007	2,57761383	2,7796285602833248E-005	0,010006470142892344	2,5792815E-005	0,082057337713234522	-0,0030616695973447206	0,092556204855775373
1	1	0	0	0	0	2	280313,60	0,0100000007	2,57984781	2,7796579117990202E-005	0,010006575806780262	2,58154432E-005	0,084003082225544576	-0,003134267941180329	0,094501949368085427
1	1	0	0	0	0	2	281013,62	0,0100000007	2,58223486	2,7796005444963357E-005	0,01000636928846709	2,58387954E-005	0,085948824004528013	-0,0032068661830318464	0,096447691147068864
1	1	0	0	0	0	2	281713,63	0,0100000007	2,58446884	2,7796511648791949E-005	0,010006551517870605	2,58616201E-005	0,087894556261996314	-0,003279464069622832	0,098393423404537165
1	1	0	0	0	0	2	282313,24	0,0100000007	2,58662653	2,6675045938593232E-005	0,010006485177990954	2,58830405E-005	0,089561209231824051	-0,0033416491327658554	0,1000600763743649

File: LLTO_LP30_LTO_05_GCPL_C01_loop8.txt
EC-Lab ASCII FILE
Nb header lines : 3
mode	ox/red	error	control changes	Ns changes	counter inc.	Ns	time/s	control/V/mA	Ewe/V	dq/mA.h	<I>/mA	P/W	(Q-Qo)/mA.h	x	Capacity/mA.h
1	0	0	1	1	0	1	321971,19	-0,0100000007	2,61693025	0	0	0	0	0	0
1	0	0	1	0	0	1	322671,20	-0,0100000007	1,81018937	-2,7755016955909219E-005	-0,0099916137165247782	1,80867137E-005	-0,0019427641459481395	7,2487142359500019E-005	0,0019427641459481395
1	0	0	1	0	0	1	323371,22	-0,0100000007	1,47075832	-2,7755964367443488E-005	-0,009991954777761047	1,46957509E-005	-0,0038856749880879309	0,0001449797581511457	0,0038856749880879309
1	0	0	1	0	0	1	324071,23	-0,0100000007	1,23990095	-2,7755944535187962E-005	-0,009991947638635488	1,2389025E-005	-0,005828590937242368	0,00021747256449237424	0,005828590937242368
1	0	0	1	0	0	1	324771,24	-0,0100000007	1,06193638	-2,7755917505309398E-005	-0,009991937907601289	1,06108027E-005	-0,007771502367730039	0,0002899652022360704	0,007771502367730039
1	0	0	1	0	0	1	325471,26	-0,0100000007	0,91908735	-2,7758203900367434E-005	-0,0099927609939736896	9,18422029E-006	-0,0097144753258676787	0,00036246013565911162	0,0097144753258676787
1	1	0	0	0	0	2	326151,80	0,0100000007	1,45625889	2,77966178814984E-005	0,010006589761374518	1,45721851E-005	-0,0084368880900167782	0,00031479163815520698	0,001584402834182864
1	1	0	0	0	0	2	326851,82	0,0100000007	1,7928257	2,7796004487770714E-005	0,010006368943418422	1,79396757E-005	-0,0064911203288814106	0,0002421924268746679	0,0035301705953182362
1	1	0	0	0	0	2	327551,83	0,0100000007	2,00859833	2,7796750418945318E-005	0,010006637473936707	2,00993145E-005	-0,0045453307641629677	0,00016959240207312902	0,0054759601600366803
1	1	0	0	0	0	2	328251,84	0,0100000007	2,14401937	2,7796356562369811E-005	0,01000649568795013	2,14541196E-005	-0,0025995467575096666	9,6992584650473549E-005	0,0074217441666899827
1	1	0	0	0	0	2	328951,86	0,0100000007	2,23413467	2,7797784018382016E-005	0,010007009562569387	2,23570078E-005	-0,00065374412080127539	2,4392072115414266E-005	0,009367546803398377
1	1	0	0	0	0	2	329651,87	0,0100000007	2,29640317	2,7798516969610422E-005	0,010007273419698067	2,29807338E-005	0,0012920754100968085	-4,8209070764576928E-005	0,011313366334296458
1	1	0	0	0	0	2	330351,88	0,0100000007	2,33844995	2,7797821746156038E-005	0,010007023144306518	2,34009221E-005	0,0032379347388007635	-0,00012081169855421392	0,013259225663000413
1	1	0	0	0	0	2	331051,90	0,0100000007	2,36965108	2,7797688157763328E-005	0,010006975053411131	2,37130389E-005	0,0051837759701078304	-0,0001934136511056408	0,015205066894307485
1	1	0	0	0	0	2	331751,91	0,0100000007	2,39598298	2,7797697913212083E-005	0,010006978564839083	2,39765504E-005	0,0071296255921123955	-0,0002660159167252727	0,017150916516312038
1	1	0	0	0	0	2	332451,93	0,0100000007	2,41862965	2,7797776258602323E-005	0,010007006769102486	2,42032438E-005	0,0090754740182828851	-0,00033861813772672749	0,019096764942482528
1	1	0	0	0	0	2	333151,94	0,0100000007	2,43818283	2,7797840451562986E-005	0,010007029877773877	2,43989689E-005	0,01102130933463776	-0,00041121986958333536	0,021042600258837382
1	1	0	0	0	0	2	333851,95	0,0100000007	2,45567369	2,7797123378608374E-005	0,010006771736830189	2,45733663E-005	0,012967132461805379	-0,00048382114664497811	0,022988423386004976
1	1	0	0	0	0	2	334551,97	0,0100000007	2,47075868	2,7797152762404749E-005	0,010006782314560221	2,47243443E-005	0,014912918733359181	-0,00055642104857411648	0,024934209657558771
1	1	0	0	0	0	2	335251,98	0,0100000007	2,48429704	2,7796574594349498E-005	0,010006574178300965	2,48593024E-005	0,016858700892417968	-0,00062902079706053645	0,026879991816617546
1	1	0	0	0	0	2	335951,99	0,0100000007	2,49632668	2,7796350563772851E-005	0,010006493528380315	2,49794775E-005	0,018804456996411507	-0,00070161957339744077	0,028825747920611085
1	1	0	0	0	0	2	336652,01	0,0100000007	2,50719166	2,7796944661842038E-005	0,010006707399567141	2,50887333E-005	0,02075020330680721	-0,00077421798432204211	0,03077149423100679
1	1	0	0	0	0	2	337352,02	0,0100000007	2,51712108	2,779592249676999E-005	0,010006339427692443	2,51871679E-005	0,022695954377217126	-0,00084681657284917376	0,032717245301416685
1	1	0	0	0	0	2	338052,03	0,0100000007	2,52617216	2,7796467966400086E-005	0,010006535792628816	2,5278232E-005	0,024641664549984003	-0,000919413635430256	0,034662955474183584
1	1	0	0	0	0	2	338752,05	0,0100000007	2,5346694	2,7795632399411664E-005	0,010006234994654294	2,53624985E-005	0,026587365747618656	-0,00099201036313708787	0,036608656671818272
1	1	0	0	0	0	2	339452,06	0,0100000007	2,54232645	2,7796431422647504E-005	0,010006522637247683	2,54398474E-005	0,028533087486382586	-0,0010646078572610709	0,038554378410582208
1	1	0	0	0	0	2	340152,07	0,0100000007	2,54939151	2,7796812941268499E-005	0,010006659981539672	2,55108935E-005	0,030478832703509811	-0,0011372062273943554	0,040500123627709395
1	1	0	0	0	0	2	340852,09	0,0100000007	2,55605555	2,7797033486525629E-005	0,010006739375837533	2,55777813E-005	0,032424609738004467	-0,0012098057846763978	0,042445900662204064
1	1	0	0	0	0	2	341552,10	0,0100000007	2,56218505	2,7796566138509661E-005	0,010006571133791277	2,56386866E-005	0,034370389683890842	-0,0012824054505863792	0,044391680608090432
1	1	0	0	0	0	2	342252,11	0,0100000007	2,56779909	2,7797015904190224E-005	0,010006733046784629	2,56952808E-005	0,036316179873982349	-0,0013550054987214282	0,046337470798181946
1	1	0	0	0	0	2	342952,13	0,0100000007	2,572649	2,7797220689761968E-005	0,010006806767937974	2,57440006E-005	0,038261963262032794	-0,0014276052930631792	0,04828325418623239
1	1	0	0	0	0	2	343652,14	0,0100000007	2,57740378	2,7796413107309491E-005	0,010006516044085931	2,57908323E-005	0,040207731809858099	-0,0015002045336961776	0,050229022734057696
1	1	0	0	0	0	2	344352,15	0,0100000007	2,58185291	2,7796726875628032E-005	0,010006628998156208	2,58356449E-005	0,042153496552860717	-0,0015728036323661258	0,052174787477060307
1	1	0	0	0	0	2	345052,17	0,0100000007	2,58611107	2,7796224845366349E-005	0,010006448271091363	2,58777873E-005	0,04409924129489895	-0,0016454019847732013	0,054120532219098541
1	1	0	0	0	0	2	345752,18	0,0100000007	2,5900445	2,7796733987931578E-005	0,010006631558419694	2,59176213E-005	0,046044985278375181	-0,0017180003088773088	0,056066276202574778
1	1	0	0	0	0	2	346452,19	0,0100000007	2,59390163	2,7796344722000259E-005	0,010006491425382675	2,59558547E-005	0,047990741706231808	-0,0017905990972979802	0,058012032630431398
1	1	0	0	0	0	2	347152,21	0,0100000007	2,5977397	2,7796762681928358E-005	0,0100066418885256	2,59946501E-005	0,049936466192621587	-0,0018631966939395779	0,059957757116821184
1	1	0	0	0	0	2	347852,22	0,0100000007	2,60138702	2,7796060221476688E-005	0,010006389007399222	2,60304914E-005	0,051882201170088826	-0,0019357946820173808	0,061903492094288422
1	1	0	0	0	0	2	348552,24	0,0100000007	2,60472846	2,779585089456911E-005	0,010006313651396446	2,60637298E-005	0,053827929725421306	-0,0020083924304767014	0,063849220649620838
1	1	0	0	0	0	2	349252,25	0,0100000007	2,60807014	2,7796140623951539E-005	0,010006417951616362	2,60974393E-005	0,055773691804409338	-0,0020809914297486835	0,065794982728608883
1	1	0	0	0	0	2	349952,26	0,0100000007	2,61102986	2,7796562578063456E-005	0,010006569852521283	2,61274527E-005	0,057719451005725491	-0,0021535903216508592	0,06774074192992503
1	1	0	0	0	0	2	350652,28	0,0100000007	2,61377954	2,7796279312525357E-005	0,010006467878425107	2,61547011E-005	0,059665209392118477	-0,0022261891831471555	0,069686500316318054
1	1	0	0	0	0	2	351352,29	0,0100000007	2,61666298	2,7796422029483235E-005	0,01000651925554068	2,61836885E-005	0,061610947602038528	-0,0022987872918321187	0,071632238526238106
1	1	0	0	0	0	2	352052,30	0,0100000007	2,61962247	2,7796638389221494E-005	0,010006597144012682	2,62135072E-005	0,06355668973794423	-0,0023713855470008858	0,073577980662143846
1	1	0	0	0	0	2	352752,32	0,0100000007	2,62221956	2,7796440502939126E-005	0,010006525906089725	2,62393078E-005	0,065502425406801152	-0,0024439835608753674	0,075523716331000755
1	1	0	0	0	0	2	353452,33	0,0100000007	2,62474012	2,7796237467270762E-005	0,010006452814889461	2,62643389E-005	0,067448181756374758	-0,0025165823463751946	0,077469472680574374
1	1	0	0	0	0	2	354152,34	0,0100000007	2,62684035	2,7796340302771165E-005	0,010006489834607322	2,62854519E-005	0,069393926893653965	-0,0025891807135292416	0,079415217817853568
1	1	0	0	0	0	2	354852,36	0,0100000007	2,62886453	2,7795861453697501E-005	0,010006317452609475	2,63052534E-005	0,071339638465312525	-0,0026617778283048538	0,081360929389512128
1	1	0	0	0	0	2	355552,37	0,0100000007	2,63107944	2,7796422097676742E-005	0,010006519280089867	2,63279471E-005	0,073285356427006874	-0,0027343751815012922	0,083306647351206477
1	1	0	0	0	0	2	356252,38	0,0100000007	2,63329458	2,7796294331705818E-005	0,010006473285691918	2,63499915E-005	0,075231060243749965	-0,0028069720069305814	0,085252351167949581
1	1	0	0	0	0	2	356952,40	0,0100000007	2,63575768	2,7796611534897238E-005	0,010006587476642091	2,63749407E-005	0,077176775138127066	-0,0028795692456812893	0,087198066062326682
1	1	0	0	0	0	2	357652,41	0,0100000007	2,63797283	2,7795596571121782E-005	0,010006222096252342	2,63961429E-005	0,079122537912588979	-0,0029521682709023373	0,089143828836788595
1	1	0	0	0	0	2	358352,42	0,0100000007	2,64013052	2,7796741017606109E-005	0,01000663408951976	2,64188202E-005	0,081068297012061568	-0,003024767159004592	0,091089587936261184
1	1	0	0	0	0	2	359052,44	0,0100000007	2,64228821	2,7796122208185907E-005	0,010006411322068384	2,64398222E-005	0,083014084665523123	-0,003097367112494567	0,093035375589722726
1	1	0	0	0	0	2	359752,45	0,0100000007	2,64425492	2,7796440150330048E-005	0,010006525779385878	2,64598057E-005	0,084959857214115904	-0,0031699665024015789	0,094981148138315507
1	1	0	0	0	0	2	360452,46	0,0100000007	2,64622188	2,7796767284317565E-005	0,010006643544887851	2,64797982E-005	0,086905619366222528	-0,0032425655044017139	0,096926910290422131
1	1	0	0	0	0	2	361152,48	0,0100000007	2,64805484	2,7796645989434589E-005	0,010006599880036714	2,64980245E-005	0,088851385972588211	-0,0033151646725962438	0,098872676896787814
1	1	0	0	0	0	2	361581,77	0,0100000007	2,64927697	2,5795329857876317E-005	0,010006600791669618	2,65102572E-005	0,090044647440531546	-0,0033596868623223162	0,10006593836473115