Folder: thesis/Experimentelles/Rohdaten/Batteriemessungen/AlteZelle/Studenten_Batterietests/ASS Batterie 03/ECLab-Export

Note: README.md
# thesis

Zusammenfassung
---------------
Es konnten die Festkörperelektrolytkeramiken LATP, LAGP, LTO und LLTO hergestellt,
mit XRD und MAS-NMR charakterisiert und zu Elektrodensuspensionen weiterverarbeitet
werden. Aus den Daten der MAS-NMR konnten dabei gegenüber der XRD keine Mehrinfor-
mationen gewonnen werden. Die mit den Suspensionen gegossenen und gestanzten Elektro-
denproben wurden mittels REM und EDX untersucht und als Kathode in Testzellen verbaut.
Mit diesen wurden Ladekennlinien erstellt und eine zyklischer Voltametrie durchgeführt. Aus
den Ladekennlinien konnten die Kapazitäten und der Grad der Lithiuminsertation in die
Materialen bestimmt werden. Die zyklische Voltametrie lieferte nicht-reaktive Spannungsbe-
reiche der Materialien.

Für ein noch besseres Verständnis der Lithiumbewegung und -insertation wurde eine in-situ
NMR-Testzelle konzipiert, konstruiert, gebaut und getestet. Für den Test kam dabei eine
Lithium-Schwefel-Zelle zum Einsatz, für welche ein Di?usionskoe?zient sowie ein Spektrum
vor und nach einer 90 minütigen Ladezeit aufgenommen worden ist.

Abstract
--------
The all solid state electrolyte ceramics LATP, LAGP, LTO, and LLTO were successfully
synthesized and characterized by using XRD. MAS-NMR spectroscopy were not able to ge-
nerate additional information. All powders were processed to electrode slurries, casted on
aluminum foils and punched to electrode samples. Those samples were studied by SEM and
EDX and then build into battery test cells. The cells were analyzed by measuring the charge
curves as well as cyclic voltammetry. With the charge curves capacities and the amount of
lithium insertion were calculated. The cyclic voltammetry was able to detect non-reactive
voltage regions.

To be able to better understand lithium movement and insertion a novel in-situ NMR sample
cell was designed, constructed, built and tested. Therefore, a lithium-sulfur-cell was built into
the in-situ sample cell. With this setting a diffusion coeffcient as well as a NMR spectrum
before and after 90 minutes of charging were measured.

File: LiNiMnO-LATP-LTO_3_01_OCV_C01.mpt
EC-Lab ASCII FILE
Nb header lines : 46

Open Circuit Voltage

Run on channel : 1 (SN 6985)
Grouped channel(s) : 1
User :
CE vs. WE compliance from -10 V to 10 V
Electrode connection : standard
Ewe ctrl range : min = -10,00 V, max = 10,00 V
Acquisition started on : 01.29.2015 22:15:06
Saved on :
	File : LiNiMnO-LATP-LTO_3_01_OCV_C01.mpr
	Directory : C:\Hupfer\Studenten Batterietests\ASS Batterie 03\
	Host : 192.168.0.2
Device : VMP3 (SN 0324)
Address : 192.168.0.1
EC-Lab for windows v10.33 (software)
Internet server v10.33 (firmware)
Command interpretor v10.32 (firmware)
Electrode material :
Initial state :
Electrolyte :
Comments :
Mass of active material : 0,001 mg
 at x = 0,000
Molecular weight of active material (at x = 0) : 0,001 g/mol
Atomic weight of intercalated ion : 0,001 g/mol
Acquisition started at : xo = 0,000
Number of e- transfered per intercalated ion : 1
for DX = 1, DQ = 26,801 mA.h
Battery capacity : 0,000 A.h
Electrode surface area : 0,001 cm²
Characteristic mass : 0,001 g
tR (h:m:s)          0:05:0,0000
dER/dt (mV/h)       0,0
dER (mV)            0,00
dtR (s)             5,0000
E range min (V)     -10,000
E range max (V)     10,000

Number of loops : 1
Loop 0 from point number 0 to 60

mode	error	time/s	Ewe/V
3	0	0,0000	0,112085409
3	0	5,0000	0,110214107
3	0	10,0000	0,11074876
3	0	15,0000	0,111531653
3	0	20,0000	0,1132311
3	0	25,0000	0,114701413
3	0	30,0000	0,11611443
3	0	35,0000	0,117241032
3	0	40,0000	0,117279224
3	0	45,0000	0,116018958
3	0	50,0000	0,112620063
3	0	55,0000	0,110252298
3	0	60,0000	0,110653289
3	0	65,0000	0,113307483
3	0	70,0000	0,114854172
3	0	75,0000	0,116190813
3	0	80,0000	0,11701189
3	0	85,0000	0,117202841
3	0	90,0000	0,11611443
3	0	95,0000	0,115503393
3	0	100,0000	0,113975801
3	0	105,0000	0,114319511
3	0	110,0000	0,114033088
3	0	115,0000	0,113975801
3	0	120,0000	0,114166752
3	0	125,0000	0,113040149
3	0	130,0000	0,112772822
3	0	135,0000	0,112410024
3	0	140,0000	0,112390928
3	0	145,0000	0,112734631
3	0	150,0000	0,113765761
3	0	155,0000	0,114243135
3	0	160,0000	0,11412856
3	0	165,0000	0,114109464
3	0	170,0000	0,112753727
3	0	175,0000	0,112505496
3	0	180,0000	0,112257265
3	0	185,0000	0,111760795
3	0	190,0000	0,111512557
3	0	195,0000	0,111207038
3	0	200,0000	0,111283422
3	0	205,0000	0,111340709
3	0	210,0000	0,110977903
3	0	215,0000	0,110500529
3	0	220,0000	0,110443242
3	0	225,0000	0,111149758
3	0	230,0000	0,113135628
3	0	235,0000	0,114434078
3	0	240,0000	0,114987835
3	0	245,0000	0,115083307
3	0	250,0000	0,114987835
3	0	255,0000	0,115274258
3	0	260,0000	0,115350634
3	0	265,0000	0,115121499
3	0	270,0000	0,11447227
3	0	275,0000	0,113632098
3	0	280,0000	0,112295449
3	0	285,0000	0,111818075
3	0	290,0000	0,111359797
3	0	295,0000	0,110882431
3	0	299,9998	0,111035191

File: LiNiMnO-LATP-LTO_4_04_OCV_C01.mpt
EC-Lab ASCII FILE
Nb header lines : 46

Open Circuit Voltage

Run on channel : 1 (SN 6985)
Grouped channel(s) : 1
User :
CE vs. WE compliance from -10 V to 10 V
Electrode connection : standard
Ewe ctrl range : min = -10,00 V, max = 10,00 V
Acquisition started on : 01.29.2015 22:33:05
Saved on :
	File : LiNiMnO-LATP-LTO_4_04_OCV_C01.mpr
	Directory : C:\Hupfer\Studenten Batterietests\ASS Batterie 03\
	Host : 192.168.0.2
Device : VMP3 (SN 0324)
Address : 192.168.0.1
EC-Lab for windows v10.33 (software)
Internet server v10.33 (firmware)
Command interpretor v10.32 (firmware)
Electrode material :
Initial state :
Electrolyte :
Comments :
Mass of active material : 0,001 mg
 at x = 0,000
Molecular weight of active material (at x = 0) : 0,001 g/mol
Atomic weight of intercalated ion : 0,001 g/mol
Acquisition started at : xo = 0,000
Number of e- transfered per intercalated ion : 1
for DX = 1, DQ = 26,801 mA.h
Battery capacity : 0,000 A.h
Electrode surface area : 0,001 cm²
Characteristic mass : 0,001 g
tR (h:m:s)          0:10:0,0000
dER/dt (mV/h)       0,0
dER (mV)            0,00
dtR (s)             5,0000
E range min (V)     -10,000
E range max (V)     10,000

Number of loops : 1
Loop 0 from point number 0 to 120

mode	error	time/s	Ewe/V
3	0	230548,9435	-1,32042158
3	0	230553,9435	-1,00858259
3	0	230558,9435	-0,967948735
3	0	230563,9435	-0,944710195
3	0	230568,9435	-0,928154945
3	0	230573,9435	-0,91219157
3	0	230578,9435	-0,894815207
3	0	230583,9435	-0,87839359
3	0	230588,9435	-0,867051244
3	0	230593,9435	-0,860558987
3	0	230598,9435	-0,85463953
3	0	230603,9435	-0,846619666
3	0	230608,9435	-0,835850179
3	0	230613,9435	-0,824565053
3	0	230618,9435	-0,816392422
3	0	230623,9435	-0,811752379
3	0	230628,9435	-0,809785604
3	0	230633,9435	-0,805221915
3	0	230638,9435	-0,795731783
3	0	230643,9435	-0,786795318
3	0	230648,9435	-0,783530116
3	0	230653,9435	-0,782785416
3	0	230658,9435	-0,7794438
3	0	230663,9435	-0,771271169
3	0	230668,9435	-0,763595045
3	0	230673,9435	-0,760043383
3	0	230678,9435	-0,759947896
3	0	230683,9435	-0,758916795
3	0	230688,9435	-0,753799319
3	0	230693,9435	-0,745741308
3	0	230698,9435	-0,739936411
3	0	230703,9435	-0,739382684
3	0	230708,9435	-0,740165591
3	0	230713,9435	-0,735410929
3	0	230718,9435	-0,727448344
3	0	230723,9435	-0,724221349
3	0	230728,9435	-0,725004196
3	0	230733,9435	-0,725347936
3	0	230738,9435	-0,72040236
3	0	230743,9435	-0,713470876
3	0	230748,9435	-0,709136367
3	0	230753,9435	-0,708849907
3	0	230758,9435	-0,710358441
3	0	230763,9435	-0,709289134
3	0	230768,9435	-0,705565631
3	0	230773,9435	-0,700085342
3	0	230778,9435	-0,694891572
3	0	230783,9435	-0,692695618
3	0	230788,9435	-0,692810237
3	0	230793,9435	-0,694070458
3	0	230798,9435	-0,692542851
3	0	230803,9435	-0,690747976
3	0	230808,9435	-0,686623454
3	0	230813,9435	-0,681448758
3	0	230818,9435	-0,677266955
3	0	230823,9435	-0,675051928
3	0	230828,9435	-0,675261974
3	0	230833,9435	-0,675949395
3	0	230838,9435	-0,676331282
3	0	230843,9435	-0,675376534
3	0	230848,9435	-0,672416866
3	0	230853,9435	-0,668788791
3	0	230858,9435	-0,663652301
3	0	230863,9435	-0,660883546
3	0	230868,9435	-0,658764005
3	0	230873,9435	-0,659069479
3	0	230878,9435	-0,660845339
3	0	230883,9435	-0,661570966
3	0	230888,9435	-0,657618284
3	0	230893,9435	-0,651832521
3	0	230898,9435	-0,649197459
3	0	230903,9435	-0,65097326
3	0	230908,9435	-0,653131008
3	0	230913,9435	-0,651221514
3	0	230918,9435	-0,647727132
3	0	230923,9435	-0,642686069
3	0	230928,9435	-0,639726341
3	0	230933,9435	-0,640967548
3	0	230938,9435	-0,642857909
3	0	230943,9435	-0,643583536
3	0	230948,9435	-0,641368508
3	0	230953,9435	-0,63823694
3	0	230958,9435	-0,634627998
3	0	230963,9435	-0,631076396
3	0	230968,9435	-0,629586995
3	0	230973,9435	-0,630599022
3	0	230978,9435	-0,63281399
3	0	230983,9435	-0,632890403
3	0	230988,9435	-0,63195473
3	0	230993,9435	-0,628345788
3	0	230998,9435	-0,623514771
3	0	231003,9435	-0,620612383
3	0	231008,9435	-0,621949017
3	0	231013,9435	-0,624278605
3	0	231018,9435	-0,625042379
3	0	231023,9435	-0,623381138
3	0	231028,9435	-0,619982243
3	0	231033,9435	-0,615838647
3	0	231038,9435	-0,613432705
3	0	231043,9436	-0,611580491
3	0	231048,9436	-0,611446798
3	0	231053,9436	-0,611733258
3	0	231058,9436	-0,611427724
3	0	231063,9436	-0,613222659
3	0	231068,9436	-0,613489985
3	0	231073,9436	-0,612993479
3	0	231078,9436	-0,609384537
3	0	231083,9436	-0,604534447
3	0	231088,9436	-0,602567673
3	0	231093,9436	-0,60317874
3	0	231098,9436	-0,605183661
3	0	231103,9436	-0,606883109
3	0	231108,9436	-0,606004775
3	0	231113,9436	-0,603331447
3	0	231118,9436	-0,598825097
3	0	231123,9436	-0,596018136
3	0	231128,9436	-0,596361816
3	0	231133,9436	-0,599054217
3	0	231138,9436	-0,600161731
3	0	231143,9436	-0,600161731
3	0	231148,9436	-0,599016011