Folder: thesis/Experimentelles/Rohdaten/Batterietests/AlteZelle/Studenten_Batterietests/ASS Batterie 03/ZView-Export (part 2)

File: LiNiMnO-LATP-LTO_3_02_GCPL_C01.txt
EC-Lab ASCII FILE
Nb header lines : 81

Galvanostatic Cycling with Potential Limitation

Run on channel : 1 (SN 6985)
Grouped channel(s) : 1
User :
CE vs. WE compliance from -10 V to 10 V
Electrode connection : standard
Ewe ctrl range : min = -10,00 V, max = 10,00 V
Acquisition started on : 01.29.2015 22:15:06
Saved on :
	File : LiNiMnO-LATP-LTO_3_02_GCPL_C01.mpr
	Directory : C:\Hupfer\Studenten Batterietests\ASS Batterie 03\
	Host : 192.168.0.2
Device : VMP3 (SN 0324)
Address : 192.168.0.1
EC-Lab for windows v10.33 (software)
Internet server v10.33 (firmware)
Command interpretor v10.32 (firmware)
Electrode material :
Initial state :
Electrolyte :
Comments :
Mass of active material : 0,001 mg
 at x = 0,000
Molecular weight of active material (at x = 0) : 0,001 g/mol
Atomic weight of intercalated ion : 0,001 g/mol
Acquisition started at : xo = 0,000
Number of e- transfered per intercalated ion : 1
for DX = 1, DQ = 26,801 mA.h
Battery capacity : 0,000 A.h
Electrode surface area : 0,001 cm²
Characteristic mass : 0,001 g
Ns                  0                   1                   2
Set I/C             I                   I                   I
Is                  0,000               1,000               -1,000
unit Is             mA                  µA                  µA
vs.                 <None>              <None>              <None>
N                   1                   1                   1
I sign              > 0                 > 0                 > 0
t1 (h:m:s)          0:00:0,0000         10:00:0,0000        10:00:0,0000
I Range             1 mA                1 mA                1 mA
Bandwidth           5                   5                   5
dE1 (mV)            0,00                0,00                0,00
dt1 (s)             0,0000              10,0000             10,0000
EM (V)              0,000               2,500               0,000
tM (h:m:s)          0:00:0,0000         0:00:0,0000         0:00:0,0000
Im                  0,000               0,000               0,000
unit Im             mA                  mA                  mA
E range min (V)     -10,000             -10,000             -10,000
E range max (V)     10,000              10,000              10,000
dq                  0,000               1,000               1,000
unit dq             mA.h                mA.h                mA.h
dtq (s)             0,0000              120,0000            120,0000
dQM                 0,000               0,000               0,000
unit dQM            mA.h                mA.h                mA.h
dxM                 0,000               0,000               0,000
tR (h:m:s)          0:00:0,0000         0:00:0,0000         0:00:0,0000
dER/dt (mV/h)       0,0                 0,1                 0,1
dER (mV)            0,00                5,00                5,00
dtR (s)             1,0000              120,0000            120,0000
EL (V)              pass                4,200               4,200
goto Ns'            0                   0                   0
nc cycles           0                   0                   0

Number of loops : 11
Loop 0 from point number 0 to 30
Loop 1 from point number 31 to 34
Loop 2 from point number 35 to 38
Loop 3 from point number 39 to 42
Loop 4 from point number 43 to 46
Loop 5 from point number 47 to 50
Loop 6 from point number 51 to 54
Loop 7 from point number 55 to 58
Loop 8 from point number 59 to 62
Loop 9 from point number 63 to 66
Loop 10 from point number 67 to 70

mode	ox/red	error	control changes	Ns changes	counter inc.	Ns	time/s	control/V/mA	Ewe/V	dq/mA.h	<I>/mA	P/W	(Q-Qo)/mA.h	x	Capacity/mA.h
1	1	0	1	1	0	1	300,0008	0,00100000005	0,110653289	0	0	0	0	0	0
1	1	0	1	0	0	1	320,0008	0,00100000005	2,24121022	3,271290267119184E-006	0,0011776645259132144	2,63939387E-006	6,5222398354429363E-006	-2,4335353750509997E-007	6,5222398354429363E-006
1	1	0	1	0	0	1	340,0008	0,00100000005	2,34672856	3,2722010964320768E-006	0,0011779924244741392	2,76442847E-006	1,3069229303446869E-005	-4,876305170772857E-007	1,3069229303446869E-005
1	1	0	1	0	0	1	360,0008	0,00100000005	2,3928237	3,2693926494879027E-006	0,0011769813835486958	2,81630901E-006	1,9609905507779331E-005	-7,3167194029361549E-007	1,9609905507779331E-005
1	1	0	1	0	0	1	380,0008	0,00100000005	2,41904116	3,2737390457316205E-006	0,0011785460862359616	2,85095143E-006	2,615595906102519E-005	-9,7591399962782669E-007	2,615595906102519E-005
1	1	0	1	0	0	1	400,0008	0,00100000005	2,43530989	3,2723643246055059E-006	0,0011780511866180582	2,86891964E-006	3,270078946159952E-005	-1,2201104214913168E-006	3,270078946159952E-005
1	1	0	1	0	0	1	420,0008	0,00100000005	2,43994999	3,2718195228177741E-006	0,0011778550579695202	2,87390753E-006	3,9245238642714362E-005	-1,4642926195442182E-006	3,9245238642714362E-005
1	1	0	1	0	0	1	440,0008	0,00100000005	2,4516933	3,2683963213348755E-006	0,001176622705404545	2,88471801E-006	4,5785438942498227E-005	-1,7083162861219795E-006	4,5785438942498227E-005
1	1	0	1	0	0	1	460,0008	0,00100000005	2,46274924	3,2684970137779603E-006	0,0011766589546849712	2,89781588E-006	5,232198921469616E-005	-1,9522037652629955E-006	5,232198921469616E-005
1	1	0	1	0	0	1	480,0008	0,00100000005	2,47607756	3,2641545022941293E-006	0,0011750956505112995	2,90962794E-006	5,8855522588996493E-005	-2,1959786798871891E-006	5,8855522588996493E-005
1	1	0	1	0	0	1	500,0008	0,00100000005	2,47995377	3,2622544119690752E-006	0,0011744116179770002	2,91248648E-006	6,5385832026505446E-005	-2,4396333050950675E-006	6,5385832026505446E-005
1	1	0	1	0	0	1	520,0008	0,00100000005	2,48329544	3,2641788814346202E-006	0,0011751044270020982	2,91813149E-006	7,1912209144187123E-005	-2,6831412101631306E-006	7,1912209144187123E-005
1	1	0	1	0	0	1	540,0008	0,00100000005	2,48073673	3,2604694997361446E-006	0,0011737690495569122	2,91181209E-006	7,8434360698002931E-005	-2,9264914537620262E-006	7,8434360698002931E-005
1	1	0	1	0	0	1	560,0008	0,00100000005	2,48698068	3,2650554397195162E-006	0,0011754199879926323	2,92324671E-006	8,4961441958667533E-005	-3,1700256313515117E-006	8,4961441958667533E-005
1	1	0	1	0	0	1	571,1326	0,00100000005	2,50072908	3,7044117223962938E-007	0,0011782896746350405	2,94658321E-006	8,8599721931271962E-005	-3,305774748848832E-006	8,8599721931271962E-005
1	0	0	0	0	0	2	571,2322	-0,00100000005	-0,00247962959	-2,0089741596216803E-008	-0,00073053607649914112	1,81145887E-009	8,8579782682229632E-005	-3,3050307886584576E-006	2,0240234150100554E-008
1	1	0	1	0	0	1	577,1168	0,00100000005	2,50084376	1,8955824725417187E-006	0,0011697115312892318	2,92526579E-006	9,0475365154771354E-005	-3,3757575193467296E-006	1,8955824725417187E-006
1	0	0	0	0	0	2	577,2170	-0,00100000005	-0,00446549989	-2,0180558404844205E-008	-0,00072941779209571098	3,25721516E-009	9,0455335442240896E-005	-3,3750101838419827E-006	2,0331404279229696E-008
1	1	0	1	0	0	1	581,0972	0,00100000005	2,50086284	1,2396020460146245E-006	0,0011652829220771323	2,9142127E-006	9,1694937488255514E-005	-3,421261402841465E-006	1,2396020460146245E-006
1	0	0	0	0	0	2	581,1962	-0,00100000005	-0,0019258773	-1,9978079416735757E-008	-0,00073090536297894528	1,40763401E-009	9,1675115554323443E-005	-3,4205218198355859E-006	2,0134224901388128E-008
1	1	0	1	0	0	1	584,1198	0,00100000005	2,49979353	9,2658447032509786E-007	0,0011610526200617221	2,90239177E-006	9,2601700024648538E-005	-3,4550939322294854E-006	9,2658447032509786E-007
1	0	0	0	0	0	2	584,2200	-0,00100000005	-0,00331980549	-2,0142401173466675E-008	-0,00072803861502312794	2,41694664E-009	9,2581713062347814E-005	-3,454348191793289E-006	2,0297840046219386E-008
1	1	0	1	0	0	1	588,8818	0,00100000005	2,50015616	1,4982526089709914E-006	0,0011696975903348656	2,92442655E-006	9,407996567131881E-005	-3,5102500110560538E-006	1,4982526089709914E-006
1	0	0	0	0	0	2	588,9824	-0,00100000005	-0,00356803928	-2,0233683641789763E-008	-0,0007284126295056823	2,59900479E-009	9,4059883186846029E-005	-3,5095007065591866E-006	2,0384882810806931E-008
1	1	0	1	0	0	1	591,7624	0,00100000005	2,50097728	8,788391073095328E-007	0,001159163503421688	2,89904165E-006	9,4938722294155558E-005	-3,5422913752646522E-006	8,788391073095328E-007
1	0	0	0	0	0	2	591,8632	-0,00100000005	-0,00253691431	-2,0354049527718922E-008	-0,00073128323503852006	1,85520288E-009	9,4918527216576269E-005	-3,5415378697675981E-006	2,0513021476138723E-008
1	1	0	1	0	0	1	595,4030	0,00100000005	2,50170302	1,1292358212647539E-006	0,0011650948811331947	2,91472134E-006	9,6047763037841024E-005	-3,583671176532695E-006	1,1292358212647539E-006
1	0	0	0	0	0	2	595,5016	-0,00100000005	-0,00179221295	-1,9764552461007648E-008	-0,00072604480262334797	1,3012269E-009	9,6028151097785766E-005	-3,5829394286807002E-006	1,9917164866759171E-008
1	1	0	1	0	0	1	600,5062	0,00100000005	2,50107288	1,6094836670357229E-006	0,0011695884835892054	2,925226E-006	9,7637634764821491E-005	-3,6429914282716083E-006	1,6094836670357229E-006
1	0	0	0	0	0	2	600,6074	-0,00100000005	-0,00339618511	-2,0407174611490416E-008	-0,00073027664470445811	2,48015475E-009	9,7617385148921677E-005	-3,6422358878764877E-006	2,0564733323175866E-008
1	1	0	1	0	0	1	604,4882	0,00100000005	2,50097728	1,2393522412870272E-006	0,0011648655896152986	2,9133023E-006	9,8856737390208704E-005	-3,6884777863257171E-006	1,2393522412870272E-006
1	0	0	0	0	0	2	604,5890	-0,00100000005	-0,0041981712	-2,0386553841212342E-008	-0,00073245105471449178	3,07495496E-009	9,8836506628544576E-005	-3,6877229494074803E-006	2,0542346018298003E-008
1	1	0	1	0	0	1	609,6882	0,00100000005	2,50219941	1,6392743308671114E-006	0,0011689156875575795	2,92486015E-006	0,00010047578095941168	-3,748886478719911E-006	1,6392743308671114E-006
1	0	0	0	0	0	2	609,7894	-0,00100000005	-0,00372079853	-2,0364424309958749E-008	-0,00072874681280185498	2,71152012E-009	0,00010045557868682147	-3,7481327047673267E-006	2,0526576029712691E-008
1	1	0	1	0	0	1	612,4716	0,00100000005	2,50069094	8,4709426663256538E-007	0,001158815715502007	2,89783998E-006	0,00010130267295345405	-3,7797389307857414E-006	8,4709426663256538E-007
1	0	0	0	0	0	2	612,5726	-0,00100000005	-0,00396903232	-2,0286455429919037E-008	-0,00072740280271546688	2,88708524E-009	0,00010128254087697418	-3,7789877759444134E-006	2,0440834379971622E-008

File: LiNiMnO-LATP-LTO_4_01_OCV_C01.txt
EC-Lab ASCII FILE
Nb header lines : 46

Open Circuit Voltage

Run on channel : 1 (SN 6985)
Grouped channel(s) : 1
User :
CE vs. WE compliance from -10 V to 10 V
Electrode connection : standard
Ewe ctrl range : min = -10,00 V, max = 10,00 V
Acquisition started on : 01.29.2015 22:33:05
Saved on :
	File : LiNiMnO-LATP-LTO_4_01_OCV_C01.mpr
	Directory : C:\Hupfer\Studenten Batterietests\ASS Batterie 03\
	Host : 192.168.0.2
Device : VMP3 (SN 0324)
Address : 192.168.0.1
EC-Lab for windows v10.33 (software)
Internet server v10.33 (firmware)
Command interpretor v10.32 (firmware)
Electrode material :
Initial state :
Electrolyte :
Comments :
Mass of active material : 0,001 mg
 at x = 0,000
Molecular weight of active material (at x = 0) : 0,001 g/mol
Atomic weight of intercalated ion : 0,001 g/mol
Acquisition started at : xo = 0,000
Number of e- transfered per intercalated ion : 1
for DX = 1, DQ = 26,801 mA.h
Battery capacity : 0,000 A.h
Electrode surface area : 0,001 cm²
Characteristic mass : 0,001 g
tR (h:m:s)          0:10:0,0000
dER/dt (mV/h)       0,0
dER (mV)            0,00
dtR (s)             5,0000
E range min (V)     -10,000
E range max (V)     10,000

Number of loops : 1
Loop 0 from point number 0 to 120

mode	error	time/s	Ewe/V
3	0	0,0000	0,396465868
3	0	5,0000	0,395625681
3	0	10,0000	0,389801741
3	0	15,0000	0,389190704
3	0	20,0000	0,393620729
3	0	25,0000	0,392837822
3	0	30,0000	0,388331443
3	0	35,0000	0,385486305
3	0	40,0000	0,385180771
3	0	45,0000	0,388274163
3	0	50,0000	0,390260011
3	0	55,0000	0,387262106
3	0	60,0000	0,383271277
3	0	65,0000	0,380693465
3	0	70,0000	0,381610036
3	0	75,0000	0,384722501
3	0	80,0000	0,386059135
3	0	85,0000	0,384149641
3	0	90,0000	0,380330682
3	0	95,0000	0,378192037
3	0	100,0000	0,376416206
3	0	105,0000	0,376301646
3	0	110,0000	0,376358926
3	0	115,0000	0,375747889
3	0	120,0000	0,375308722
3	0	125,0000	0,375614226
3	0	130,0000	0,375977039
3	0	135,0000	0,376969963
3	0	140,0000	0,377218187
3	0	145,0000	0,378153861
3	0	150,0000	0,37775287
3	0	155,0000	0,37632075
3	0	160,0000	0,374525815
3	0	165,0000	0,372578144
3	0	170,0000	0,370630443
3	0	175,0000	0,368816435
3	0	180,0000	0,367346138
3	0	185,0000	0,366563231
3	0	190,0000	0,366677821
3	0	195,0000	0,366754204
3	0	200,0000	0,366448671
3	0	205,0000	0,367441595
3	0	210,0000	0,367116988
3	0	215,0000	0,366849661
3	0	220,0000	0,366028577
3	0	225,0000	0,36553213
3	0	230,0000	0,365169317
3	0	235,0000	0,364691943
3	0	240,0000	0,364596456
3	0	245,0000	0,364596456
3	0	250,0000	0,364348233
3	0	255,0000	0,364997447
3	0	260,0000	0,366181344
3	0	265,0000	0,364042699
3	0	270,0000	0,361178488
3	0	275,0000	0,3588489
3	0	280,0000	0,357206732
3	0	285,0000	0,356347471
3	0	290,0000	0,356328368
3	0	295,0000	0,356080145
3	0	300,0000	0,355698228
3	0	305,0000	0,355831891
3	0	310,0000	0,355488181
3	0	315,0000	0,356863022
3	0	320,0000	0,357913256
3	0	325,0000	0,359097123
3	0	330,0000	0,359039843
3	0	335,0000	0,357569546
3	0	340,0000	0,354667127
3	0	345,0000	0,352662146
3	0	350,0000	0,351249129
3	0	355,0000	0,350027055
3	0	360,0000	0,349931568
3	0	365,0000	0,348976821
3	0	370,0000	0,349053204
3	0	375,0000	0,348938644
3	0	380,0000	0,348976821
3	0	385,0000	0,349110484
3	0	390,0000	0,350179821
3	0	395,0000	0,351802886
3	0	400,0000	0,353273183
3	0	405,0000	0,351115465
3	0	410,0000	0,347678363
3	0	415,0000	0,345616132
3	0	420,0000	0,344451338
3	0	425,0000	0,344317675
3	0	430,0000	0,344413161
3	0	435,0000	0,344126731
3	0	440,0000	0,344623178
3	0	445,0000	0,346074402
3	0	450,0000	0,347067326
3	0	455,0000	0,348442167
3	0	460,0000	0,347850233
3	0	465,0000	0,346876383
3	0	470,0000	0,345043272
3	0	475,0000	0,343744814
3	0	480,0000	0,342541844
3	0	485,0000	0,341415256
3	0	490,0000	0,340804219
3	0	495,0000	0,340460509
3	0	500,0000	0,339715809
3	0	505,0000	0,338340968
3	0	510,0000	0,337118894
3	0	515,0000	0,33698523
3	0	520,0000	0,336145043
3	0	525,0000	0,336966127
3	0	530,0000	0,337749034
3	0	535,0000	0,338952005
3	0	540,0000	0,340078592
3	0	545,0000	0,340632349
3	0	550,0000	0,340689629
3	0	555,0000	0,338398248
3	0	560,0000	0,334292859
3	0	565,0000	0,332841635
3	0	570,0000	0,332803458
3	0	575,0000	0,334025532
3	0	580,0000	0,333815485
3	0	585,0000	0,333624512
3	0	590,0000	0,333147168
3	0	595,0000	0,333433568
3	0	600,0000	0,333299905