Folder: thesis/Experimentelles/Rohdaten/Batteriemessungen/AlteZelle/Studenten_Batterietests/SemArbeitToph/ECLab-Export (part 6)

File: Al_Struktur_01_Laden_IS_03_PEIS_C03.mpt
EC-Lab ASCII FILE
Nb header lines : 65

Potentio Electrochemical Impedance Spectroscopy

Run on channel : 3 (SN 6987)
Grouped channel(s) : 3
User :
CE vs. WE compliance from -10 V to 10 V
Electrode connection : standard
Ewe ctrl range : min = -10,00 V, max = 10,00 V
Acquisition started on : 03.16.2015 13:07:36
Saved on :
	File : Al_Struktur_01_Laden_IS_03_PEIS_C03.mpr
	Directory : C:\Hupfer\Studenten Batterietests\SemArbeitToph\
	Host : 192.168.0.2
Device : VMP3 (SN 0324)
Address : 192.168.0.1
EC-Lab for windows v10.33 (software)
Internet server v10.33 (firmware)
Command interpretor v10.32 (firmware)
Electrode material :
Initial state :
Electrolyte :
Comments :
Mass of active material : 0,001 mg
 at x = 0,000
Molecular weight of active material (at x = 0) : 0,001 g/mol
Atomic weight of intercalated ion : 0,001 g/mol
Acquisition started at : xo = 0,000
Number of e- transfered per intercalated ion : 1
for DX = 1, DQ = 26,801 mA.h
Battery capacity : 0,000 A.h
Electrode surface area : 0,001 cm²
Characteristic mass : 0,001 g
Multi Sine          0
E (V)               0,0000
vs.                 Eoc
tE (h:m:s)          0:00:0,0000
record              0
dI                  0,000
unit dI             mA
dt (s)              0,000
fi                  1,000
unit fi             MHz
ff                  500,000
unit ff             mHz
Sel Nd              1
Nd                  6
Nt                  51
Log                 1
Va (mV)             10,0
pw                  0,10
Na                  2
E range min (V)     -10,000
E range max (V)     10,000
I Range             Auto
Bandwidth           5
corr                0
nc cycles           0
goto Ns'            0
nr cycles           0
inc. cycle          0

freq/Hz	Re(Z)/Ohm	-Im(Z)/Ohm	|Z|/Ohm	Phase(Z)/deg	time/s	<Ewe>/V	<I>/mA	Cs/µF	Cp/µF	cycle number	I Range	|Ewe|/V	|I|/A	Re(Y)/Ohm-1	Im(Y)/Ohm-1	|Y|/Ohm-1	Phase(Y)/deg
1000024,25	-0,28176108	-6,81287336	6,81869745	92,3682404	12787,8514	4,12722874	0,175384209	-0,0233603474	-0,0233204588	1	9	0,000561704219	8,23770533E-005	-0,00606007595	-0,146530315	0,146655574	-92,3682404
675622,438	18,5425892	-2,04952073	18,6555119	6,30732632	12790,2354	4,12766123	0,015564872	-0,114938036	-0,00138724782	1	10	0,00238988549	0,000128106127	0,0532789938	-0,00588895148	0,0536034591	-6,30732632
456457,438	18,3949928	-0,785218358	18,4117451	2,44427395	12791,4674	4,12783861	0,015232957	-0,444047451	-0,000807644741	1	10	0,00777162751	0,000422101642	0,0542637408	-0,00231633056	0,0543131568	-2,44427395
308398,406	18,3383141	0,128558025	18,3387642	-0,401656955	12791,7814	4,12783718	0,0156786311	4,01429081	0,000197272733	1	10	0,0108905388	0,000593853474	0,0545279607	0,000382260157	0,0545293018	0,401656955
208361,797	18,4292412	0,890944004	18,4507637	-2,76775479	12792,1974	4,12785673	0,0154138356	0,857337117	0,00199905038	1	10	0,0101547427	0,00055036979	0,054135073	0,0026171084	0,0541982986	2,76775479
140771,469	18,6227093	1,66956282	18,6973991	-5,12298441	12792,6134	4,12789154	0,0162716154	0,677177846	0,00539940409	1	10	0,0101622296	0,000543510308	0,0532697253	0,00477573648	0,0534833744	5,12298441
95104,9688	18,8674374	2,55842423	19,0401077	-7,72220659	12792,9274	4,12790489	0,0165774338	0,654100358	0,0118100215	1	10	0,0108472779	0,000569706724	0,0520444103	0,00705722161	0,052520711	7,72220659
64257,8047	19,2218971	3,67947817	19,5708942	-10,8365364	12793,2414	4,12791538	0,0165662449	0,673144042	0,0237935446	1	10	0,0106150471	0,000542389462	0,0501851141	0,00960649364	0,0510962866	10,8365364
43408,1992	19,7082558	5,13176346	20,3654194	-14,5949564	12793,5554	4,12791061	0,0162790734	0,714466274	0,0453657694	1	10	0,0103044203	0,000505976321	0,0475183614	0,0123731392	0,0491028428	14,5949564
29333,4883	20,4420891	7,09197664	21,6373558	-19,1331997	12793,8694	4,12790251	0,0158054326	0,765048742	0,0821893066	1	10	0,0102786683	0,000475042703	0,0436633378	0,0151481256	0,0462163687	19,1331997
19812,0098	21,465065	9,67084789	23,5430317	-24,2534199	12794,1834	4,12790155	0,0157942418	0,830667198	0,140162349	1	10	0,010078162	0,000428074098	0,0387264267	0,0174477641	0,0424754135	24,2534199
13391,1094	23,0518169	13,142992	26,5353451	-29,6896229	12794,3954	4,12790537	0,0160291977	0,904293418	0,22184433	1	10	0,0103316475	0,000389354187	0,0327382684	0,0186657198	0,0376855843	29,6896229
9040,93652	25,4609566	17,6699944	30,9917564	-34,760788	12794,6706	4,12796688	0,0172021165	0,996254563	0,323855102	1	10	0,0103468625	0,000333858537	0,0265083276	0,0183968749	0,0322666466	34,760788
6110,23389	28,9561558	23,440567	37,2547874	-38,9908371	12795,0559	4,12793255	0,0147621026	1,1112051	0,439912438	1	10	0,00951471739	0,000255395833	0,0208629984	0,0168890003	0,0268421881	38,9908371
4131,0332	34,5196266	30,7243443	46,2124443	-41,6708183	12795,7537	4,12792969	0,00175928872	1,25394607	0,554276168	1	11	0,0105521381	0,000228339748	0,0161639769	0,0143868169	0,0216391925	41,6708183
2787,32349	42,5098648	39,1497192	57,7909088	-42,6437111	12796,2047	4,1279397	0,00170249678	1,45849228	0,66933322	1	11	0,0104520312	0,000180859439	0,0127283074	0,0117222127	0,0173037592	42,6437111
1883,19141	53,8022881	48,1145477	72,1782227	-41,8057709	12796,6557	4,12793684	0,00170436013	1,75650454	0,780530214	1	11	0,0103338286	0,000143170997	0,0103273373	0,00923557673	0,013854594	41,8057709
1273,77686	68,8855209	56,2619667	88,9416885	-39,2400894	12797,1067	4,12793493	0,0017005367	2,22081232	0,888650417	1	11	0,0102510406	0,000115255745	0,00870797597	0,00711220363	0,0112433219	39,2400894
859,17511	87,5273972	61,9824944	107,251457	-35,304203	12797,5577	4,12793541	0,00165064633	2,98861098	0,99816215	1	11	0,0102010984	9,51138427E-005	0,00760917598	0,00538843498	0,00932388287	35,304203
580,929382	108,154404	63,5812988	125,458984	-30,4502163	12798,0082	4,12792873	0,00164915377	4,30890989	1,10668147	1	11	0,0101744998	8,10982165E-005	0,00687132822	0,00403948361	0,00797073264	30,4502163
392,612793	128,261139	60,6399841	141,873627	-25,3040981	12798,4617	4,12793112	0,001630596	6,68492603	1,22126925	1	11	0,0101602692	7,16149225E-005	0,00637223432	0,00301269884	0,00704852631	25,3040981
265,424622	145,534164	54,113327	155,268951	-20,3964214	12798,9122	4,12792301	0,00164337154	11,0808916	1,34590352	1	11	0,0101525718	6,53870084E-005	0,00603664666	0,00224457961	0,00644043786	20,3964214
179,368607	158,942963	46,254261	165,536469	-16,2256126	12799,3652	4,12792683	0,00160308648	19,183239	1,49774563	1	11	0,0101480698	6,13041339E-005	0,00580034638	0,0016879685	0,00604096474	16,2256126
121,124016	169,133072	38,7491341	173,515106	-12,9040194	12799,8127	4,12792015	0,0015782814	33,9100075	1,69113123	1	11	0,0101495357	5,84936715E-005	0,00561764091	0,00128702621	0,00576318707	12,9040194
81,8062515	176,563202	32,4917336	179,527924	-10,4270964	12800,2541	4,1279273	0,00160681666	59,8770943	1,9612931	1	11	0,0101484181	5,65283553E-005	0,00547817815	0,0010081121	0,00557016395	10,4270964
55,2297401	182,157211	27,4278908	184,210587	-8,56285	12800,7037	4,12792873	0,00155450217	105,064201	2,32921934	1	11	0,0101447469	5,50714649E-005	0,0053680581	0,000808282639	0,00542856986	8,56285
37,3548431	186,921143	24,0528469	188,462341	-7,33247614	12801,3609	4,1279273	0,000281457673	177,135956	2,88529706	1	12	0,0101476647	5,38445238E-005	0,00526270829	0,000677200616	0,00530610001	7,33247614
25,2341652	190,58522	22,2089844	191,874863	-6,64672613	12801,8087	4,12793398	0,000319358689	283,989655	3,80472898	1	12	0,010144447	5,28701203E-005	0,00517670065	0,000603243301	0,00521173002	6,64672613
17,0330601	193,671921	21,9382935	194,910492	-6,46266365	12802,2096	4,1279335	0,000184392236	425,916656	5,3958497	1	12	0,0101463832	5,20566282E-005	0,00509795733	0,000577473955	0,00513056014	6,46266365
11,5228605	196,656479	23,6847897	198,077606	-6,86747599	12802,6051	4,12792444	0,000103246464	583,163452	8,3379364	1	12	0,0101439571	5,1212035E-005	0,00501230499	0,000603668857	0,00504852645	6,86747599
7,77362823	200,056213	27,356205	201,917923	-7,78648138	12803,1778	4,12793779	0,000430585467	748,411621	13,7373343	1	12	0,0101495208	5,02655748E-005	0,00490684481	0,000670974667	0,00495250756	7,78648138
5,25033522	204,576111	33,1465721	207,244019	-9,20340347	12803,6100	4,12793016	2,90112021E-005	914,522644	23,3941727	1	12	0,0101418262	4,8936643E-005	0,00476311333	0,000771746389	0,00482522976	9,20340347
3,54791069	209,552719	40,7971573	213,487122	-11,016923	12804,2324	4,1279335	0,000291956996	1099,5564	40,1544762	1	12	0,0101428768	4,75104862E-005	0,00459779846	0,000895130914	0,00468412321	11,016923
2,39647198	217,604141	53,2370605	224,021759	-13,7474327	12805,1379	4,12794352	0,000640229555	1247,48022	70,4500732	1	12	0,0101498561	4,53074572E-005	0,00433597481	0,00106080039	0,00446385192	13,7474327
1,62219644	225,496399	67,388092	235,350342	-16,638422	12806,4613	4,12794828	0,000566937961	1455,90662	119,363121	1	12	0,0101477653	4,31176995E-005	0,00407108292	0,00121661578	0,00424898462	16,638422
1,09602952	236,877472	85,7782059	251,930222	-19,9063644	12809,3613	4,12794971	0,000216233791	1692,8595	196,25209	1	13	0,0101479068	4,02806254E-005	0,00373218558	0,00135150121	0,00396935316	19,9063644
0,739819586	251,809326	111,548141	275,410461	-23,8926983	12812,2278	4,12794971	1,02222275E-005	1928,55457	316,370331	1	13	0,0101487152	3,68494184E-005	0,00331979245	0,00147062342	0,00363094406	23,8926983
0,499264985	265,874115	143,39389	302,077576	-28,3393173	12816,4625	4,12795258	0,000158777926	2223,09692	500,936523	1	13	0,0101462277	3,35881523E-005	0,00291366153	0,00157142512	0,00331040798	28,3393173

File: Al_Struktur_01_Zyklieren_02_GCPL_C03.mpt
EC-Lab ASCII FILE
Nb header lines : 76

Galvanostatic Cycling with Potential Limitation

Run on channel : 3 (SN 6987)
Grouped channel(s) : 3
User :
CE vs. WE compliance from -10 V to 10 V
Electrode connection : standard
Ewe ctrl range : min = 0,00 V, max = 5,00 V
Acquisition started on : 03.16.2015 02:19:29
Saved on :
	File : Al_Struktur_01_Zyklieren_02_GCPL_C03.mpr
	Directory : C:\Hupfer\Studenten Batterietests\SemArbeitToph\
	Host : 192.168.0.2
Device : VMP3 (SN 0324)
Address : 192.168.0.1
EC-Lab for windows v10.33 (software)
Internet server v10.33 (firmware)
Command interpretor v10.32 (firmware)
Electrode material :
Initial state :
Electrolyte :
Comments :
Mass of active material : 0,001 mg
 at x = 0,000
Molecular weight of active material (at x = 0) : 0,001 g/mol
Atomic weight of intercalated ion : 0,001 g/mol
Acquisition started at : xo = 0,000
Number of e- transfered per intercalated ion : 1
for DX = 1, DQ = 26,801 mA.h
Battery capacity : 0,000 A.h
Electrode surface area : 0,001 cm²
Characteristic mass : 0,001 g
Ns                  0                   1                   2
Set I/C             I                   I                   I
Is                  0,000               100,000             -100,000
unit Is             mA                  µA                  µA
vs.                 <None>              <None>              <None>
N                   1                   1                   1
I sign              > 0                 > 0                 > 0
t1 (h:m:s)          0:00:0,0000         4:00:0,0000         4:00:0,0000
I Range             1 A                 1 A                 1 A
Bandwidth           5                   5                   5
dE1 (mV)            0,00                10,00               10,00
dt1 (s)             0,0000              10,0000             10,0000
EM (V)              0,000               4,500               2,500
tM (h:m:s)          0:00:0,0000         0:00:0,0000         0:00:0,0000
Im                  0,000               0,000               0,000
unit Im             mA                  mA                  mA
E range min (V)     0,000               0,000               0,000
E range max (V)     5,000               5,000               5,000
dq                  0,000               1,000               1,000
unit dq             mA.h                mA.h                mA.h
dtq (s)             0,0000              120,0000            120,0000
dQM                 0,000               0,000               0,000
unit dQM            mA.h                mA.h                mA.h
dxM                 0,000               0,000               0,000
tR (h:m:s)          0:00:10,0000        0:05:0,0000         0:05:0,0000
dER/dt (mV/h)       0,0                 0,1                 0,1
dER (mV)            0,00                5,00                5,00
dtR (s)             1,0000              120,0000            120,0000
EL (V)              pass                4,200               3,500
goto Ns'            0                   0                   0
nc cycles           0                   0                   0

Number of loops : 6
Loop 0 from point number 0 to 1735
Loop 1 from point number 1736 to 2846
Loop 2 from point number 2847 to 3466
Loop 3 from point number 3467 to 4003
Loop 4 from point number 4004 to 4521
Loop 5 from point number 4522 to 5036

mode	ox/red	error	control changes	Ns changes	counter inc.	Ns	time/s	control/V/mA	Ewe/V	dq/mA.h	<I>/mA	P/W	(Q-Qo)/mA.h	x	Capacity/mA.h
3	1	0	0	0	0	0	600,0006	0	4,06096649	0	0	0	0	0	0
1	1	0	0	0	0	1	1142,9064	0,100000001	4,38762188	0,00061812558659911155	0,22252521679714	0,000976356503	0,033185538501119866	-0,0012381970599078362	0,033185538501119866
1	1	0	0	0	0	1	1882,9064	0,100000001	4,48568487	0,00062512874335878426	0,22504635329431142	0,00100948696	0,079228872565680115	-0,0029561357597776294	0,079228872565680115
1	0	0	1	0	0	2	2424,6639	-0,100000001	4,1248107	1,785881577713816E-005	0,0064291738421843302	2,65191247E-005	0,088051455816403942	-0,0032853182029514752	0,00021822451212303392
1	0	0	1	0	0	2	3164,6639	-0,100000001	3,98431158	2,8042106600151683E-005	0,010095158631079763	4,02222577E-005	0,089384093578378406	-0,0033350407096012698	0,0015508622740974774
1	0	0	1	0	0	2	3904,6639	-0,100000001	3,78143644	2,6715665629086694E-005	0,0096176398694332288	3,63684921E-005	0,090860213647555392	-0,0033901167340468038	0,0030269823432744442
1	0	0	1	0	0	2	4644,6639	-0,100000001	3,47883964	2,2907495875268877E-005	0,0082466986149411712	2,86889426E-005	0,092347153529567616	-0,0034455964602566138	0,0045139222252866534
1	0	0	1	0	0	2	5382,7675	-0,100000001	3,12867904	1,8629360874010467E-005	0,0067065699958415091	2,09827049E-005	0,093754822358768909	-0,0034981184769049837	0,005921591054487849
1	0	0	1	0	0	2	6053,1893	-0,100000001	2,597471	1,2368263172098926E-005	0,0088562630198567091	2,30038859E-005	0,095214979936654682	-0,0035525989193386451	0,0073817486323736448
3	0	0	0	0	0	2	6133,1335	0	2,82372642	0	0	0	0,095361922668611456	-0,0035580815502345568	0,0075286913643304192
3	0	0	0	0	0	2	6164,9799	0	3,19605803	0	0	0	0,095361922668611456	-0,0035580815502345568	0,0075286913643304192
3	0	0	0	0	0	2	6390,6391	0	3,56776071	0	0	0	0,095361922668611456	-0,0035580815502345568	0,0075286913643304192
1	0	0	0	0	0	2	6452,8643	-0,100000001	2,88060403	9,7580020649830771E-007	0,0069123982407842547	1,99118822E-005	0,095429717366779968	-0,0035606110615741651	0,0075964860624988698
3	0	0	1	0	0	2	6491,1367	0	2,68763137	0	0	0	0,095471095385399962	-0,003562154931082215	0,0076378640811188352
3	0	0	1	0	0	2	6522,1753	0	3,05986762	0	0	0	0,095471095385399962	-0,003562154931082215	0,0076378640811188352
3	0	0	1	0	0	2	6641,8451	0	3,43206573	0	0	0	0,095471095385399962	-0,003562154931082215	0,0076378640811188352
1	0	0	1	0	0	2	6802,5997	-0,100000001	3,0649302	9,0220771556778355E-007	0,0086381590833922496	2,64753544E-005	0,095508959649609037	-0,0035635676976888998	0,0076757283453278784
3	0	0	0	0	0	2	6837,0723	0	2,59564924	0	0	0	0,095564568667927782	-0,0035656425449294925	0,0077313373636466867
3	0	0	0	0	0	2	6867,9683	0	2,96794271	0	0	0	0,095564568667927782	-0,0035656425449294925	0,0077313373636466867
3	0	0	0	0	0	2	6968,6127	0	3,33983588	0	0	0	0,095564568667927782	-0,0035656425449294925	0,0077313373636466867
1	0	0	0	0	0	2	7147,3155	-0,100000001	3,12246418	1,2352338899088662E-006	0,01228409408164372	3,83566439E-005	0,095599047372362317	-0,003566928991749056	0,0077658160680812173
3	0	0	1	0	0	2	7175,9421	0	2,56611967	0	0	0	0,095643273394128333	-0,0035685791240836646	0,0078100420898472512
3	0	0	1	0	0	2	7209,9299	0	2,93845129	0	0	0	0,095643273394128333	-0,0035685791240836646	0,0078100420898472512
3	0	0	1	0	0	2	7322,1671	0	3,31040168	0	0	0	0,095643273394128333	-0,0035685791240836646	0,0078100420898472512
1	1	0	0	0	0	1	7495,0019	0,100000001	3,77810025	5,1489911559141344E-005	0,22451996590963459	0,000848258962	0,096309758922507994	-0,0035934465952468339	0,00066648552837967872
1	1	0	0	0	0	1	8147,1514	0,100000001	4,09663439	0,00063398347169450586	0,22823405257329594	0,000934991462	0,13709158965346491	-0,005115071531573417	0,041448316259336563
1	1	0	0	0	0	1	8887,1514	0,100000001	4,29020643	0,00062958439747451072	0,22665038583492394	0,000972376962	0,18371972584657152	-0,0068548299851340992	0,088076452452443149
[...]
3	0	0	0	0	0	2	16035,8598	0	2,69977474	0	0	0	0,35776557027610048	-0,013348714447926442	0,0022615309200015814
3	0	0	0	0	0	2	16066,1904	0	3,07216358	0	0	0	0,35776557027610048	-0,013348714447926442	0,0022615309200015814
1	1	0	0	1	0	1	16340,7103	0,100000001	3,39725828	1,2706424627039168E-008	0,22871564906454832	0,000777006149	0,35776558298252506	-0,013348714922020229	1,2706424627039168E-008
1	1	0	0	0	0	1	16375,6113	0,100000001	4,1429019	4,0088537720342483E-005	0,22182406630954112	0,000918995356	0,3599310714704233	-0,013429512209033949	0,0021655011943226883
3	1	0	1	0	0	1	16878,5331	0	4,46101665	0	0	0	0,39110520150286803	-0,014592660914608067	0,03333963122676768
1	0	0	1	0	0	2	17270,5405	-0,100000001	3,93045688	1,4014854645633021E-005	0,0064702194638422093	2,5430918E-005	0,39128852097200506	-0,014599500810477216	0,00018331946913689738
1	0	0	1	0	0	2	17504,3425	-0,100000001	3,19810867	1,5230243572021008E-006	0,0068932458540534554	2,20453494E-005	0,39176073806240275	-0,014617119865022586	0,00065553655953455642
3	0	0	0	0	0	2	17642,4683	0	2,53012753	0	0	0	0,3920597166999337	-0,01462827515996992	0,00095451519706542771
3	0	0	0	0	0	2	17662,9467	0	2,90224957	0	0	0	0,3920597166999337	-0,01462827515996992	0,00095451519706542771
3	0	0	0	0	0	2	17873,3735	0	3,27421904	0	0	0	0,3920597166999337	-0,01462827515996992	0,00095451519706542771
1	1	0	0	0	0	1	17976,8823	0,100000001	3,8816731	3,1793720246189171E-005	0,22522116148531472	0,000874234946	0,39358764200080512	-0,014685284107262848	0,0015279253008713318
1	1	0	0	0	0	1	18279,4065	0,100000001	4,48606634	0,00062389424393160474	0,22460193053467677	0,00100757915	0,41231551823773504	-0,015384046349560102	0,020255801537801203
1	0	0	1	0	0	2	18671,6749	-0,100000001	4,0215621	5,4128160243821587E-006	0,0056013964366819917	2,2526363E-005	0,41533311595391834	-0,015496636977554182	7,8697049943951757E-005
1	0	0	1	0	0	2	18935,7649	-0,100000001	3,28582048	1,502822414679233E-006	0,0081209257854365888	2,66839052E-005	0,41594609221113018	-0,015519507945866096	0,00069167330715574554
1	0	0	1	0	0	2	19022,1349	-0,100000001	2,53925085	5,0769453597167738E-006	0,0091798109071380493	2,33098435E-005	0,41617076818425606	-0,015527890908503485	0,00091634928028169613
3	0	0	0	0	0	2	19052,7213	0	2,86192989	0	0	0	0,41619718708970445	-0,015528876633386362	0,00094276818573006515
3	0	0	0	0	0	2	19269,3573	0	3,23378515	0	0	0	0,41619718708970445	-0,015528876633386362	0,00094276818573006515
1	1	0	0	0	0	1	19365,1461	0,100000001	3,8412199	3,4159424940331117E-005	0,22985781546328419	0,00088293443	0,41769659373168294	-0,015584821511172246	0,0014994066419783571
1	1	0	0	0	0	1	19624,2895	0,100000001	4,47948933	0,00062669706287028058	0,22561094536481638	0,00101062178	0,43395432063607942	-0,016191419160721581	0,017757133546374739
1	0	0	1	0	0	2	20028,6631	-0,100000001	4,02476454	7,8007162518333645E-006	0,009172517261222857	3,6917223E-005	0,43770654873615315	-0,01633141983605967	9,4827677007360371E-005
1	0	0	1	0	0	2	20290,2127	-0,100000001	3,28635406	1,6009382573069565E-006	0,0090704718222732083	2,98087816E-005	0,4383213279858665	-0,016354358076445968	0,0007096069267208137
1	0	0	1	0	0	2	20363,9523	-0,100000001	2,54010868	2,2560263591553344E-006	0,004548949810400375	1,15548273E-005	0,43844458154262234	-0,016358956832364694	0,00083286048347636672
3	0	0	0	0	0	2	20394,8829	0	2,85731649	0	0	0	0,43845729147571789	-0,016359431057057178	0,000845570416571904
3	0	0	0	0	0	2	20643,7341	0	3,22911453	0	0	0	0,43845729147571789	-0,016359431057057178	0,000845570416571904
3	0	0	0	0	0	2	20672,0303	0	3,24125791	0	0	0	0,43845729147571789	-0,016359431057057178	0,000845570416571904