Folder: thesis/Experimentelles/Rohdaten/Batteriemessungen/AlteZelle/Studenten_Batterietests/SemArbeitToph/ECLab-Export (part 5)

File: Al_Struktur_01_Laden_IS_01_GCPL_C03.mpt
EC-Lab ASCII FILE
Nb header lines : 68

Galvanostatic Cycling with Potential Limitation

Run on channel : 3 (SN 6987)
Grouped channel(s) : 3
User :
CE vs. WE compliance from -10 V to 10 V
Electrode connection : standard
Ewe ctrl range : min = -10,00 V, max = 10,00 V
Acquisition started on : 03.16.2015 13:07:36
Saved on :
	File : Al_Struktur_01_Laden_IS_01_GCPL_C03.mpr
	Directory : C:\Hupfer\Studenten Batterietests\SemArbeitToph\
	Host : 192.168.0.2
Device : VMP3 (SN 0324)
Address : 192.168.0.1
EC-Lab for windows v10.33 (software)
Internet server v10.33 (firmware)
Command interpretor v10.32 (firmware)
Electrode material :
Initial state :
Electrolyte :
Comments :
Mass of active material : 0,001 mg
 at x = 0,000
Molecular weight of active material (at x = 0) : 0,001 g/mol
Atomic weight of intercalated ion : 0,001 g/mol
Acquisition started at : xo = 0,000
Number of e- transfered per intercalated ion : 1
for DX = 1, DQ = 26,801 mA.h
Battery capacity : 0,000 A.h
Electrode surface area : 0,001 cm²
Characteristic mass : 0,001 g
Ns                  0                   1
Set I/C             I                   I
Is                  0,000               50,000
unit Is             mA                  µA
vs.                 <None>              <None>
N                   1                   1
I sign              > 0                 > 0
t1 (h:m:s)          0:00:0,0000         4:00:0,0000
I Range             100 mA              100 mA
Bandwidth           5                   5
dE1 (mV)            0,00                10,00
dt1 (s)             0,0000              10,0000
EM (V)              0,000               4,200
tM (h:m:s)          0:00:0,0000         0:30:0,0000
Im                  0,000               0,000
unit Im             mA                  mA
E range min (V)     -10,000             -10,000
E range max (V)     10,000              10,000
dq                  0,000               1,000
unit dq             mA.h                mA.h
dtq (s)             0,0000              120,0000
dQM                 0,000               0,000
unit dQM            mA.h                mA.h
dxM                 0,000               0,000
tR (h:m:s)          0:00:0,0000         0:02:0,0000
dER/dt (mV/h)       0,0                 0,1
dER (mV)            0,00                5,00
dtR (s)             1,0000              120,0000
EL (V)              pass                4,200
goto Ns'            0                   0
nc cycles           0                   0

mode	ox/red	error	control changes	Ns changes	counter inc.	Ns	time/s	control/V/mA	Ewe/V	dq/mA.h	<I>/mA	P/W	(Q-Qo)/mA.h	x	Capacity/mA.h
1	1	0	1	1	0	1	0,0004	0,0500000007	4,11445618	0	0	0	0	0	0
1	1	0	1	0	0	1	1,5674	0,0500000007	4,14451933	1,2142964927065702E-005	0,059105834020770829	0,000244965282	2,4881087179088758E-005	-9,2834681562930291E-007	2,4881087179088758E-005
1	1	0	1	0	0	1	3,9826	0,0500000007	4,17456388	1,3606712252522509E-005	0,059245483002570317	0,00024732406	6,4560553491426022E-005	-2,408841053352463E-006	6,4560553491426022E-005
1	1	0	1	0	0	1	6,2260	0,0500000007	4,19997549	8,2071255068812109E-006	0,059138616035144755	0,000248380733	0,0001014241639842383	-3,7842719244907302E-006	0,0001014241639842383
2	1	0	0	0	0	1	246,2266	4,2001214	4,19944191	0,00030235044680585754	0,0090704985158186483	3,80910315E-005	0,00074738753022897843	-2,7886033626064906E-005	0,00074738753022897843
2	1	0	0	0	0	1	606,2272	4,2001214	4,19942284	0,00029611619548361498	0,0088834712831387123	3,73054536E-005	0,0016425631598483386	-6,1286239943597888E-005	0,0016425631598483386
2	1	0	0	0	0	1	966,2278	4,2001214	4,19942284	0,00029546367883025152	0,0088638958156690688	3,72232462E-005	0,0025310349087432992	-9,4436315457840026E-005	0,0025310349087432992
2	1	0	0	0	0	1	1326,2284	4,2001214	4,19938469	0,00028537376978221357	0,0085611990410757786	3,5951769E-005	0,0033866302230851584	-0,00012635972699606958	0,0033866302230851584
2	1	0	0	0	0	1	1686,2290	4,2001214	4,19948006	0,00028365190106343974	0,0085095430643009152	3,57356548E-005	0,0042375059396292243	-0,00015810704399489674	0,0042375059396292243
3	1	0	1	0	0	1	1818,7426	0	4,19450426	0	0	0	0,0045215598252182675	-0,00016870547638073498	0,0045215598252182675
3	1	0	1	0	0	1	1873,5370	0	4,17944384	0	0	0	0,0045215598252182675	-0,00016870547638073498	0,0045215598252182675
3	1	0	1	0	0	1	1926,2262	0,0500000007	4,17103195	0	0	0	0,0045215598252182675	-0,00016870547638073498	0,0045215598252182675
1	1	0	1	0	0	1	1927,3062	0,0500000007	4,19389439	1,1359685960743162E-005	0,058824612329929101	0,000246704207	0,0045392032094234451	-0,00016936377476721251	0,0045392032094234451
2	1	0	0	0	0	1	2047,7727	4,2001214	4,19940376	0,00029824011941223418	0,0089471888964109107	3,75728596E-005	0,0048450659112079571	-0,0001807759234075689	0,0048450659112079571
2	1	0	0	0	0	1	2407,7733	4,2001214	4,19949913	0,00028209057123203338	0,0084627032462418138	3,55391167E-005	0,0056973529207569466	-0,00021257589764591338	0,0056973529207569466
2	1	0	0	0	0	1	2767,7739	4,2001214	4,19944191	0,00028131347782637747	0,0084393904823378112	3,54407312E-005	0,0065373635797178816	-0,00024391782473808864	0,0065373635797178816
2	1	0	0	0	0	1	3127,7745	4,2001214	4,19944191	0,00028022754136733254	0,0084068124420402061	3,53039213E-005	0,0073816000909208333	-0,00027541742405913235	0,0073816000909208333
2	1	0	0	0	0	1	3487,7751	4,2001214	4,19946098	0,00028071163347785318	0,0084213351815181338	3,53650685E-005	0,0082251721333215283	-0,00030689223115577594	0,0082251721333215283
3	1	0	1	0	0	1	3727,7727	4,2001214	4,19957542	0	0	0	0,0087812605215467558	-0,00032764063658924902	0,0087812605215467558
3	1	0	1	0	0	1	3778,2405	0	4,18453407	0	0	0	0,0087812605215467558	-0,00032764063658924902	0,0087812605215467558
3	1	0	1	0	0	1	3847,7725	0,0500000007	4,17279387	0	0	0	0,0087812605215467558	-0,00032764063658924902	0,0087812605215467558
1	1	0	1	0	0	1	3848,8141	0,0500000007	4,19631529	1,1076812142920163E-005	0,059216698428687744	0,000248491939	0,0087984013918691251	-0,00032828018550712186	0,0087984013918691251
2	1	0	0	0	0	1	3969,0931	4,2001214	4,19949913	0,00029568694883064986	0,0088705939046867456	3,72520517E-005	0,0090986888901248768	-0,00033948431580787936	0,0090986888901248768
2	1	0	0	0	0	1	4329,0933	4,2001214	4,19948006	0,00027852890722114374	0,0083558673178004134	3,50902992E-005	0,0099321122583498765	-0,00037058046222599027	0,0099321122583498765
2	1	0	0	0	0	1	4689,0933	4,2001214	4,19957542	0,00027337362636714368	0,0082012088903079334	3,44415967E-005	0,010751691795785478	-0,00040116007670412026	0,010751691795785478
2	1	0	0	0	0	1	5049,0933	4,2001214	4,19948006	0,00027579238981661104	0,008273771794670487	3,47455389E-005	0,011578896615593725	-0,00043202420071987488	0,011578896615593725
2	1	0	0	0	0	1	5409,0933	4,2001214	4,19936562	0,00024589858628117914	0,0073769576777496282	3,09785428E-005	0,012376230404418091	-0,00046177379640759264	0,012376230404418091
3	1	0	1	0	0	1	5649,0931	4,2001214	4,19942284	0	0	0	0,012910370191195691	-0,00048170327001084621	0,012910370191195691
3	1	0	1	0	0	1	5702,5043	0	4,18438148	0	0	0	0,012910370191195691	-0,00048170327001084621	0,012910370191195691
3	1	0	1	0	0	1	5769,0929	0,0500000007	4,17399502	0	0	0	0,012910370191195691	-0,00048170327001084621	0,012910370191195691
[...]
3	1	0	1	0	0	1	7625,3971	0	4,18443871	0	0	0	0,017047778681503322	-0,00063607554358910234	0,017047778681503322
3	1	0	1	0	0	1	7690,2675	0,0500000007	4,17439508	0	0	0	0,017047778681503322	-0,00063607554358910234	0,017047778681503322
1	1	0	1	0	0	1	7691,1691	0,0500000007	4,19803095	1,0349525792938141E-005	0,05908387774456759	0,00024803594	0,01706259317019905	-0,00063662829208063181	0,01706259317019905
2	1	0	0	0	0	1	7811,3287	4,2001214	4,1995182	0,00029485331564990982	0,008845599576592681	3,71472561E-005	0,017360065739506512	-0,00064772739359761638	0,017360065739506512
2	1	0	0	0	0	1	8171,3286	4,2001214	4,19938469	0,0002714190114539831	0,0081425704422031706	3,41937848E-005	0,018187701256267856	-0,00067860758749576922	0,018187701256267856
2	1	0	0	0	0	1	8531,3286	4,2001214	4,19948006	0,00027235423933123011	0,0081706272788602675	3,43123866E-005	0,019010462576908048	-0,00070930591858321549	0,019010462576908048
2	1	0	0	0	0	1	8891,3286	4,2001214	4,1995182	0,00027008194128470982	0,0081024583366393254	3,40264196E-005	0,01982266046960399	-0,00073961011397138189	0,01982266046960399
2	1	0	0	0	0	1	9251,3286	4,2001214	4,1995182	0,00027155462095698752	0,0081466387273425574	3,42119565E-005	0,02063348529437721	-0,00076986307834924211	0,02063348529437721
3	1	0	1	0	0	1	9491,3288	4,2001214	4,19946098	0	0	0	0,021166267602620346	-0,00078974190260322547	0,021166267602620346
3	1	0	1	0	0	1	9547,6144	0	4,18441963	0	0	0	0,021166267602620346	-0,00078974190260322547	0,021166267602620346
3	1	0	1	0	0	1	9611,3286	0,0500000007	4,17519617	0	0	0	0,021166267602620346	-0,00078974190260322547	0,021166267602620346
1	1	0	1	0	0	1	9612,1940	0,0500000007	4,19862223	1,0162615617944134E-005	0,059469142827807949	0,000249688455	0,021180562224118563	-0,00079027525415064704	0,021180562224118563
2	1	0	0	0	0	1	9732,3014	4,2001214	4,19938469	0,0002902475094860921	0,0087074253900052467	3,65658307E-005	0,021472580631624966	-0,00080117085355763546	0,021472580631624966
2	1	0	0	0	0	1	10092,3014	4,2001214	4,19944191	0,00026187309632080563	0,0078561929847406182	3,29916256E-005	0,022274015235698493	-0,00083107345617590426	0,022274015235698493
2	1	0	0	0	0	1	10452,3014	4,2001214	4,19948006	0,00026897549542008589	0,008069264960298729	3,38867176E-005	0,02303867170881769	-0,00085960381727954381	0,02303867170881769
2	1	0	0	0	0	1	10812,3014	4,2001214	4,19948006	0,00026171273418601613	0,0078513821206386854	3,29717222E-005	0,023831736716932227	-0,00088919413901954112	0,023831736716932227
2	1	0	0	0	0	1	11172,3014	4,2001214	4,19934654	0,00026654976589048845	0,0079964930735297421	3,35800469E-005	0,024627427279525846	-0,00091888242372724851	0,024627427279525846
3	1	0	1	0	0	1	11412,3016	4,2001214	4,19955635	0	0	0	0,025159611597807568	-0,0009387389361717655	0,025159611597807568
3	1	0	1	0	0	1	11468,6596	0	4,18449593	0	0	0	0,025159611597807568	-0,0009387389361717655	0,025159611597807568
3	1	0	1	0	0	1	11532,3014	0,0500000007	4,17599678	0	0	0	0,025159611597807568	-0,0009387389361717655	0,025159611597807568
1	1	0	1	0	0	1	11533,1202	0,0500000007	4,19867945	9,8510135755770739E-006	0,059343455993376333	0,00024916415	0,02517311211092119	-0,00093924265846766758	0,02517311211092119
2	1	0	0	0	0	1	11653,2158	4,2001214	4,19953728	0,00028987650182783546	0,008696295160122793	3,65204141E-005	0,025464571319730259	-0,000950117393419408	0,025464571319730259
2	1	0	0	0	0	1	12013,2158	4,2001214	4,19934654	0,00027624115626345805	0,0082872347882388954	3,48009708E-005	0,026287341905008755	-0,00098081607018296576	0,026287341905008755
2	1	0	0	0	0	1	12185,5080	4,2001214	4,19953728	0,00012107007862310357	0,0083349388306504371	3,50028859E-005	0,026685895548843603	-0,00099568664249551731	0,026685895548843603

File: Al_Struktur_01_Laden_IS_02_OCV_C03.mpt
EC-Lab ASCII FILE
Nb header lines : 43

Open Circuit Voltage

Run on channel : 3 (SN 6987)
Grouped channel(s) : 3
User :
CE vs. WE compliance from -10 V to 10 V
Electrode connection : standard
Ewe ctrl range : min = -10,00 V, max = 10,00 V
Acquisition started on : 03.16.2015 13:07:36
Saved on :
	File : Al_Struktur_01_Laden_IS_02_OCV_C03.mpr
	Directory : C:\Hupfer\Studenten Batterietests\SemArbeitToph\
	Host : 192.168.0.2
Device : VMP3 (SN 0324)
Address : 192.168.0.1
EC-Lab for windows v10.33 (software)
Internet server v10.33 (firmware)
Command interpretor v10.32 (firmware)
Electrode material :
Initial state :
Electrolyte :
Comments :
Mass of active material : 0,001 mg
 at x = 0,000
Molecular weight of active material (at x = 0) : 0,001 g/mol
Atomic weight of intercalated ion : 0,001 g/mol
Acquisition started at : xo = 0,000
Number of e- transfered per intercalated ion : 1
for DX = 1, DQ = 26,801 mA.h
Battery capacity : 0,000 A.h
Electrode surface area : 0,001 cm²
Characteristic mass : 0,001 g
tR (h:m:s)          0:10:0,0000
dER/dt (mV/h)       1,0
dER (mV)            1,00
dtR (s)             0,5000
E range min (V)     -10,000
E range max (V)     10,000

mode	error	time/s	Ewe/V
3	0	12185,5582	4,19946098
3	0	12188,0582	4,19829798
3	0	12190,5582	4,19753551
3	0	12193,0582	4,19684935
3	0	12195,5582	4,19602919
3	0	12198,0582	4,19534302
3	0	12200,5582	4,19471407
3	0	12203,0582	4,19400883
3	0	12205,5582	4,19336033
3	0	12208,0582	4,19271231
3	0	12210,5582	4,19212151
3	0	12213,0582	4,19139671
3	0	12215,5582	4,19076777
3	0	12218,0582	4,19002438
3	0	12220,5582	4,18947172
3	0	12223,0582	4,18891859
3	0	12225,5582	4,18844223
3	0	12228,0582	4,18783188
3	0	12230,5582	4,18706942
3	0	12233,0582	4,18674564
3	0	12235,5582	4,18613529
3	0	12238,0582	4,18556356
3	0	12240,5582	4,18499136
3	0	12243,0582	4,18440056
3	0	12245,5582	4,1838479
3	0	12248,0582	4,18352365
3	0	12250,5582	4,18295193
3	0	12253,0582	4,18237972
3	0	12255,5582	4,18197966
3	0	12258,0582	4,1813693
3	0	12260,5582	4,1808548
3	0	12263,0582	4,18030214
3	0	12265,5582	4,17984438
3	0	12268,0582	4,17936802
3	0	12270,5582	4,17883396
3	0	12273,0582	4,17854786
3	0	12275,5582	4,1780715
3	0	12278,0582	4,1774044
3	0	12280,5582	4,17709923
3	0	12283,0582	4,17664146
3	0	12285,5582	4,17622232
3	0	12288,0582	4,17568874
3	0	12290,5582	4,1752882
3	0	12293,0582	4,17494488
3	0	12295,5582	4,17437315
3	0	12298,0582	4,17391539
3	0	12300,5582	4,17362976
3	0	12303,0582	4,17322922
3	0	12305,5582	4,17271471
3	0	12308,0582	4,17237139
3	0	12310,5582	4,17208529
3	0	12313,0582	4,17157078
3	0	12315,5582	4,17105627
3	0	12318,0582	4,17073202
3	0	12320,5582	4,1703124
3	0	12323,0582	4,17004585
3	0	12325,5582	4,16964531
3	0	12328,0582	4,16909266
3	0	12330,5582	4,16880655
3	0	12333,0582	4,16850138
3	0	12335,5582	4,16806316
3	0	12338,0582	4,16766262
3	0	12340,5582	4,16735792
3	0	12343,0582	4,16695738
3	0	12345,5582	4,16655684
3	0	12348,0582	4,16625214
3	0	12350,5582	4,16594696
3	0	12353,0582	4,16550875
3	0	12355,5582	4,1651845
3	0	12358,0582	4,16474581
3	0	12360,5582	4,16461277
3	0	12363,0582	4,16419315
3	0	12365,5582	4,16381168
3	0	12368,0582	4,16343069
3	0	12370,5582	4,16310644
3	0	12373,0582	4,16287756
3	0	12375,5582	4,16236305
3	0	12378,0582	4,16219139
3	0	12380,5582	4,16186762
3	0	12383,0582	4,16161966
3	0	12385,5582	4,1611619
3	0	12388,0582	4,16089535
3	0	12390,5582	4,16047573
3	0	12393,0582	4,16018963
3	0	12395,5582	4,159904
3	0	12398,0582	4,15967512
3	0	12400,5582	4,15919828
3	0	12403,0582	4,15906525
3	0	12405,5582	4,15868378
3	0	12408,0582	4,15847397
3	0	12410,5582	4,1581502
3	0	12413,0582	4,15776873
3	0	12415,5582	4,15753984
3	0	12418,0582	4,15734911
3	0	12420,5582	4,15694904
3	0	12423,0582	4,15666294
3	0	12425,5582	4,15637684
3	0	12428,0582	4,15620565
3	0	12430,5582	4,15580511
3	0	12433,0582	4,15551901
3	0	12435,5582	4,15525246
3	0	12438,0582	4,15494728
3	0	12440,5582	4,1547184
3	0	12443,0582	4,1544137
3	0	12445,5582	4,1540513
3	0	12448,0582	4,15387964
3	0	12450,5582	4,15344143
3	0	12453,0582	4,15336514
3	0	12455,5582	4,15305996
3	0	12458,0582	4,152812
3	0	12460,5582	4,15254545
3	0	12463,0582	4,15225935
3	0	12465,5582	4,15203047
3	0	12468,0582	4,15182066
3	0	12470,5582	4,15143967
3	0	12473,0582	4,15124893
3	0	12475,5582	4,1509819
3	0	12478,0582	4,15092468
3	0	12480,5582	4,15044832
3	0	12483,0582	4,15029573
3	0	12485,5582	4,15000963
3	0	12488,0582	4,14968586
3	0	12490,5582	4,14960957
3	0	12493,0582	4,14934254
3	0	12495,5582	4,14907551
3	0	12498,0582	4,14882803
3	0	12500,5582	4,14871359
3	0	12503,0582	4,14842749
3	0	12505,5582	4,14831305
3	0	12508,0582	4,14793205
3	0	12510,5582	4,14770317
3	0	12513,0582	4,14747429
3	0	12515,5582	4,14735985
3	0	12518,0582	4,14703608
3	0	12520,5582	4,14684534
3	0	12523,0582	4,14663553
3	0	12525,5582	4,14638758
3	0	12528,0582	4,1461401
3	0	12530,5582	4,14593029
3	0	12533,0582	4,14560604
3	0	12535,5582	4,14541531
3	0	12538,0582	4,14528227
3	0	12540,5582	4,14493895
3	0	12543,0582	4,1449008
3	0	12545,5582	4,14463377
3	0	12548,0582	4,14440489
3	0	12550,5582	4,14431
3	0	12553,0582	4,14400482
3	0	12555,5582	4,14375687
3	0	12558,0582	4,14356613
3	0	12560,5582	4,14328051
3	0	12563,0582	4,14328051
3	0	12565,5582	4,14295626
3	0	12568,0582	4,14272738
3	0	12570,5582	4,14255571
3	0	12573,0582	4,14232731
3	0	12575,5582	4,14213657
3	0	12578,0582	4,14202213
3	0	12580,5582	4,14171696
3	0	12583,0582	4,14158392
3	0	12585,5582	4,14133596
3	0	12588,0582	4,14120245
3	0	12590,5582	4,14106894
3	0	12593,0582	4,14061165
3	0	12595,5582	4,1405735
3	0	12598,0582	4,14047813
3	0	12600,5582	4,14024925
3	0	12603,0582	4,13996315
3	0	12605,5582	4,13984871
3	0	12608,0582	4,13954401
3	0	12610,5582	4,13948679
3	0	12613,0582	4,1393342
3	0	12615,5582	4,13918161
3	0	12618,0582	4,13893366
3	0	12620,5582	4,13872433
3	0	12623,0582	4,13855267
3	0	12625,5582	4,138381
3	0	12628,0582	4,13826656
3	0	12630,5582	4,13805676
3	0	12633,0582	4,13788557
3	0	12635,5582	4,13769484
3	0	12638,0582	4,13746595
3	0	12640,5582	4,13735151
3	0	12643,0582	4,1371417
3	0	12645,5582	4,13697052
3	0	12648,0582	4,13676071
3	0	12650,5582	4,13668442
3	0	12653,0582	4,13645554
3	0	12655,5582	4,13624573
3	0	12658,0582	4,13605547
3	0	12660,5582	4,1359601
3	0	12663,0582	4,13582659
3	0	12665,5582	4,13569307
3	0	12668,0582	4,13550234
3	0	12670,5582	4,13527346
3	0	12673,0582	4,13506413
3	0	12675,5582	4,1350069
3	0	12678,0582	4,1347971
3	0	12680,5582	4,1347208
3	0	12683,0582	4,13456821
3	0	12685,5582	4,13430119
3	0	12688,0582	4,13416815
3	0	12690,5582	4,13403463
3	0	12693,0582	4,13386297
3	0	12695,5582	4,13367224
3	0	12698,0582	4,1335578
3	0	12700,5582	4,13342428
3	0	12703,0582	4,13332891
3	0	12705,5582	4,13315773
3	0	12708,0582	4,1328907
3	0	12710,5582	4,13281441
3	0	12713,0582	4,13264275
3	0	12715,5582	4,13250923
3	0	12718,0582	4,13250923
3	0	12720,5582	4,13214731
3	0	12723,0582	4,13214731
3	0	12725,5582	4,13186121
3	0	12728,0582	4,1317277
3	0	12730,5582	4,13157511
3	0	12733,0582	4,131423
3	0	12735,5582	4,13123226
3	0	12738,0582	4,13127041
3	0	12740,5582	4,13111782
3	0	12743,0582	4,13100338
3	0	12745,5582	4,13096523
3	0	12748,0582	4,13062191
3	0	12750,5582	4,13045073
3	0	12753,0582	4,13029814
3	0	12755,5582	4,13025999
3	0	12758,0582	4,13008833
3	0	12760,5582	4,13001204
3	0	12763,0582	4,12980223
3	0	12765,5582	4,12966871
3	0	12768,0582	4,12955475
3	0	12770,5582	4,12947845
3	0	12773,0582	4,12921143
3	0	12775,5582	4,12909698
3	0	12778,0582	4,12898254
3	0	12780,5582	4,12873459
3	0	12783,0582	4,12865877
3	0	12785,5582	4,12854433