Folder: thesis/Experimentelles/Rohdaten/Batteriemessungen/AlteZelle/Studenten_Batterietests/SemArbeitToph/ECLab-Export (part 4)

File: Al_Sand_01_03_PEIS_C02.mpt
EC-Lab ASCII FILE
Nb header lines : 65

Potentio Electrochemical Impedance Spectroscopy

Run on channel : 2 (SN 6986)
Grouped channel(s) : 2
User :
CE vs. WE compliance from -10 V to 10 V
Electrode connection : standard
Ewe ctrl range : min = -10,00 V, max = 10,00 V
Acquisition started on : 03.11.2015 16:05:34
Saved on :
	File : Al_Sand_01_03_PEIS_C02.mpr
	Directory : C:\Hupfer\Studenten Batterietests\SemArbeitToph\
	Host : 192.168.0.2
Device : VMP3 (SN 0324)
Address : 192.168.0.1
EC-Lab for windows v10.33 (software)
Internet server v10.33 (firmware)
Command interpretor v10.32 (firmware)
Electrode material :
Initial state :
Electrolyte :
Comments :
Mass of active material : 0,001 mg
 at x = 0,000
Molecular weight of active material (at x = 0) : 0,001 g/mol
Atomic weight of intercalated ion : 0,001 g/mol
Acquisition started at : xo = 0,000
Number of e- transfered per intercalated ion : 1
for DX = 1, DQ = 26,801 mA.h
Battery capacity : 0,000 A.h
Electrode surface area : 0,001 cm²
Characteristic mass : 0,001 g
Multi Sine          0
E (V)               0,0000
vs.                 Eoc
tE (h:m:s)          0:00:0,0000
record              0
dI                  0,000
unit dI             mA
dt (s)              0,000
fi                  1,000
unit fi             MHz
ff                  500,000
unit ff             mHz
Sel Nd              1
Nd                  6
Nt                  51
Log                 1
Va (mV)             10,0
pw                  0,10
Na                  2
E range min (V)     -10,000
E range max (V)     10,000
I Range             Auto
Bandwidth           5
corr                0
nc cycles           0
goto Ns'            0
nr cycles           0
inc. cycle          0

freq/Hz	Re(Z)/Ohm	-Im(Z)/Ohm	|Z|/Ohm	Phase(Z)/deg	time/s	<Ewe>/V	<I>/mA	Cs/µF	Cp/µF	cycle number	I Range	|Ewe|/V	|I|/A	Re(Y)/Ohm-1	Im(Y)/Ohm-1	|Y|/Ohm-1	Phase(Y)/deg
1000024,25	18,0949154	-4,38185596	18,6179123	13,612668	93387,0918	4,15081263	0,0119677437	-0,036320474	-0,00201189704	1	10	0,000760329538	4,0838604E-005	0,052202899	-0,012641429	0,0537117161	-13,612668
675622,438	16,1540031	-1,76610005	16,2502594	6,23930645	93388,3238	4,15115166	0,00364735676	-0,13338308	-0,0015754723	1	10	0,0027784945	0,000170981541	0,0611729696	-0,00668797595	0,0615374781	-6,23930645
456457,438	16,0301991	-0,623196006	16,0423088	2,226331	93389,5558	4,15135145	0,00431821402	-0,559493661	-0,000844327151	1	10	0,00816055946	0,000508689845	0,0622881129	-0,00242153602	0,0623351671	-2,226331
308398,406	16,0714111	0,299881727	16,0742092	-1,06897664	93389,8698	4,15123463	0,00448220363	1,72090936	0,000598961313	1	10	0,0108496174	0,000674970506	0,0622006319	0,00116062188	0,0622114576	1,06897664
208361,797	16,2347832	1,11725807	16,2731819	-3,93681908	93390,2858	4,15116739	0,00352624222	0,683673203	0,00322263106	1	10	0,0101590324	0,000624280656	0,0613057949	0,00421899091	0,0614507981	3,93681908
140771,469	16,5193443	1,99780488	16,6397095	-6,89570856	93390,7018	4,15118313	0,0036156897	0,565916598	0,00815768726	1	10	0,0101377694	0,000609251554	0,0596624799	0,00721541932	0,0600972027	6,89570856
95104,9688	16,8826694	3,01767659	17,1502457	-10,1342554	93391,0158	4,15118504	0,00463500619	0,554554522	0,0171691552	1	10	0,0108906571	0,000635014614	0,0573984869	0,0102596376	0,0583082028	10,1342554
64257,8047	17,4238625	4,24808645	17,934248	-13,7018824	93391,3298	4,15118885	0,00463687023	0,583043456	0,0327130668	1	10	0,0105677871	0,000589251751	0,0541724041	0,0132076936	0,0557592362	13,7018824
43408,1992	18,1881561	5,80574846	19,0922947	-17,7033386	93391,6438	4,1511898	0,0042287684	0,631524444	0,0583969727	1	10	0,0103833051	0,000543847913	0,0498967655	0,0159272924	0,0523771495	17,7033386
29333,4883	19,3543987	7,78538513	20,8615665	-21,9126568	93391,9578	4,15118837	0,00478221662	0,696909368	0,0970605314	1	10	0,0102079529	0,000489318627	0,0444719158	0,0178890079	0,0479350388	21,9126568
19812,0098	21,1756878	10,2630196	23,5316658	-25,8576355	93392,1698	4,15116739	0,0053729373	0,78273803	0,148888588	1	10	0,0108255381	0,000460041279	0,038241256	0,018534027	0,0424959287	25,8576355
13391,1094	24,0334263	13,0436392	27,3448734	-28,4899712	93392,3818	4,1511879	0,0051921783	0,911181331	0,207324445	1	10	0,0109764989	0,00040140975	0,0321413316	0,017444035	0,0365699269	28,4899712
9040,93652	28,0758228	15,8761406	32,2537384	-29,4870186	93392,6571	4,1512289	0,00538225146	1,10882187	0,268652886	1	10	0,0109470431	0,000339403836	0,026988104	0,0152610643	0,0310041588	29,4870186
6110,23389	33,3497124	18,0455074	37,918911	-28,4177914	93393,0424	4,15121222	0,00396880694	1,4434216	0,326903611	1	10	0,0100553213	0,00026517958	0,0231942534	0,0125503959	0,0263720658	28,4177914
4131,0332	39,2122688	19,1034031	43,6181374	-25,9743824	93393,7402	4,15120745	0,000304807996	2,01674366	0,386845857	1	11	0,0107651306	0,000246804004	0,0206104629	0,0100409891	0,022926243	25,9743824
2787,32349	45,1224022	18,9700184	48,9478569	-22,8024902	93394,1911	4,15120268	0,000684064522	3,00998974	0,452098608	1	11	0,0108451331	0,000221565017	0,0188332312	0,00791772455	0,0204299036	22,8024902
1883,19141	50,4074821	17,9821434	53,5188904	-19,6331272	93394,6422	4,15120649	0,000447483384	4,69985247	0,530582488	1	11	0,0108385319	0,000202517869	0,0175987072	0,00627808552	0,0186849907	19,6331272
1273,77686	54,9516869	16,7753067	57,4551888	-16,9760551	93395,0932	4,1512084	0,000166701517	7,4482851	0,63494885	1	11	0,0108259525	0,000188424281	0,0166464839	0,00508173509	0,0174048692	16,9760551
859,17511	58,8465385	15,5643587	60,87006	-14,8149548	93395,5441	4,15120792	0,000440955017	11,9016514	0,778147995	1	11	0,0108037395	0,00017748856	0,0158823021	0,00420072023	0,0164284371	14,8149548
580,929382	62,3314018	14,7058153	64,0426788	-13,2750092	93395,9947	4,15120649	0,000720151525	18,6297779	0,982306302	1	11	0,0107967816	0,000168587299	0,0151973516	0,0035855032	0,0156145869	13,2750092
392,612793	65,5338974	14,1703062	67,0484085	-12,201149	93396,4482	4,1512022	0,000795685046	28,6072731	1,27778554	1	11	0,0107838325	0,000160836513	0,0145777017	0,00315211667	0,0149145974	12,201149
265,424622	68,6660233	13,9875422	70,0762024	-11,5138464	93396,8987	4,1512022	-0,000109606255	42,8684235	1,70796609	1	11	0,0107777258	0,00015380008	0,013983014	0,00284839561	0,0142701799	11,5138464
179,368607	71,9362564	14,0254307	73,2907715	-11,032568	93397,3517	4,15120029	-3,15485522E-007	63,264122	2,31681466	1	11	0,0107743936	0,000147008876	0,0133921169	0,00261106458	0,0136442827	11,032568
121,124016	75,3580399	14,2170839	76,6874161	-10,6838741	93397,7991	4,15119267	0,000500914583	92,4228439	3,1765244	1	11	0,0107740182	0,000140492644	0,0128139025	0,00241747685	0,0130399494	10,6838741
81,8062515	78,9290848	14,4570913	80,2421799	-10,3795586	93398,2405	4,15119886	0,00152640685	134,571381	4,36826658	1	11	0,0107712438	0,000134234186	0,0122583378	0,00224530557	0,0124622732	10,3795586
55,2297401	82,6100311	14,6270475	83,8949814	-10,0408049	93398,6901	4,15119982	0,000382391067	197,010986	5,98869038	1	11	0,0107731866	0,000128412765	0,0117371008	0,00207818742	0,0119196642	10,0408049
37,3548431	86,228775	14,5883541	87,4541092	-9,60248566	93399,1143	4,15120649	0,00094899023	292,056519	8,126791	1	11	0,0107673593	0,000123120102	0,0112743564	0,00190741767	0,0114345681	9,60248566
25,2341652	89,6564941	14,6298742	90,8422852	-9,26767063	93399,5621	4,15121078	0,000676134718	431,112488	11,1813869	1	11	0,0107696764	0,000118553558	0,0108643984	0,00177281932	0,0110080894	9,26767063
17,0330601	92,8776016	14,7548075	94,0422974	-9,02674198	93399,9631	4,1512084	5,23721683E-005	633,277283	15,5888662	1	11	0,0107705612	0,000114528906	0,0105018197	0,00166834972	0,0106335133	9,02674198
11,5228605	95,7548065	15,6893864	97,0316467	-9,3052063	93400,3585	4,15120554	-6,61512313E-005	880,346985	23,0164833	1	11	0,0107639348	0,000110932204	0,0101703005	0,00166639953	0,010305916	9,3052063
7,77362823	98,567894	17,0334129	100,028831	-9,80439186	93400,9313	4,15121794	0,000279505854	1201,9729	34,8535995	1	11	0,0107747149	0,000107716092	0,00985110831	0,00170235941	0,00999711733	9,80439186
5,25033522	101,716927	19,8974609	103,644791	-11,0682077	93401,5984	4,15121412	-0,000135216091	1523,47534	56,1481934	1	12	0,0107726492	0,00010393816	0,0094688721	0,00185226323	0,00964833796	11,0682077
3,54791069	105,0989	23,4314518	107,679207	-12,5683575	93402,2208	4,15122223	0,00138231367	1914,46863	90,6531601	1	12	0,0107734352	0,000100051213	0,00906430464	0,0020208566	0,00928684417	12,5683575
2,39647198	108,588776	28,3174458	112,220322	-14,6159029	93403,1264	4,15123129	0,000672232825	2345,27466	149,334045	1	12	0,0107762907	9,60279795E-005	0,00862267241	0,00224859384	0,00891104154	14,6159029
1,62219644	113,259491	35,0916672	118,571236	-17,2147713	93404,4497	4,15122461	-0,000904931163	2795,84229	244,884888	1	12	0,0107717523	9,08462534E-005	0,00805593468	0,00249600434	0,00843374897	17,2147713
1,09602952	116,325104	46,3873711	125,233055	-21,7408047	93406,3937	4,15122747	0,000265919283	3130,3877	429,496552	1	12	0,0107714385	8,60111468E-005	0,0074171233	0,00295775244	0,00798511226	21,7408047
0,739819586	120,556435	59,6627769	134,512085	-26,3305779	93409,2605	4,1512289	0,000547518663	3605,71045	709,37384	1	12	0,010774754	8,01024944E-005	0,00666296901	0,00329747004	0,0074342764	26,3305779
0,499264985	126,074692	81,9184952	150,351151	-33,014267	93413,4962	4,15123606	0,000295569655	3891,4104	1155,20081	1	12	0,0107718538	7,16446375E-005	0,00557717681	0,00362383574	0,00665109651	33,014267

File: Al_Sand_01_Zyklieren_01_OCV_C02.mpt
EC-Lab ASCII FILE
Nb header lines : 46

Open Circuit Voltage

Run on channel : 2 (SN 6986)
Grouped channel(s) : 2
User :
CE vs. WE compliance from -10 V to 10 V
Electrode connection : standard
Ewe ctrl range : min = 0,00 V, max = 5,00 V
Acquisition started on : 03.16.2015 02:19:24
Saved on :
	File : Al_Sand_01_Zyklieren_01_OCV_C02.mpr
	Directory : C:\Hupfer\Studenten Batterietests\SemArbeitToph\
	Host : 192.168.0.2
Device : VMP3 (SN 0324)
Address : 192.168.0.1
EC-Lab for windows v10.33 (software)
Internet server v10.33 (firmware)
Command interpretor v10.32 (firmware)
Electrode material :
Initial state :
Electrolyte :
Comments :
Mass of active material : 0,001 mg
 at x = 0,000
Molecular weight of active material (at x = 0) : 0,001 g/mol
Atomic weight of intercalated ion : 0,001 g/mol
Acquisition started at : xo = 0,000
Number of e- transfered per intercalated ion : 1
for DX = 1, DQ = 26,801 mA.h
Battery capacity : 0,000 A.h
Electrode surface area : 0,001 cm²
Characteristic mass : 0,001 g
tR (h:m:s)          0:10:0,0000
dER/dt (mV/h)       1,0
dER (mV)            1,00
dtR (s)             0,5000
E range min (V)     0,000
E range max (V)     5,000

Number of loops : 1
Loop 0 from point number 0 to 1200

mode	error	time/s	Ewe/V
3	0	0,0000	3,65360212
3	0	2,5000	3,65344954
3	0	5,0000	3,65337324
3	0	7,5000	3,65327787
3	0	10,0000	3,65323973
3	0	12,5000	3,65314436
3	0	15,0000	3,65306807
3	0	17,5000	3,65301085
3	0	20,0000	3,65287733
3	0	22,5000	3,6526866
3	0	25,0000	3,65264845
3	0	27,5000	3,65241957
3	0	30,0000	3,65243864
3	0	32,5000	3,65236235
3	0	35,0000	3,65220976
3	0	37,5000	3,65220976
3	0	40,0000	3,65205717
3	0	42,5000	3,65201902
3	0	45,0000	3,65190458
3	0	47,5000	3,65173292
3	0	50,0000	3,65158033
3	0	52,5000	3,65146589
3	0	55,0000	3,65142775
3	0	57,5000	3,65133238
3	0	60,0000	3,65137053
3	0	62,5000	3,65127516
3	0	65,0000	3,65114164
3	0	67,5000	3,65104628
3	0	70,0000	3,65098906
3	0	72,5000	3,65079832
3	0	75,0000	3,65076017
3	0	77,5000	3,65062666
3	0	80,0000	3,65072203
3	0	82,5000	3,650455
3	0	85,0000	3,65035963
3	0	87,5000	3,65022612
3	0	90,0000	3,65001631
3	0	92,5000	3,65001631
3	0	95,0000	3,64994001
3	0	97,5000	3,64984465
3	0	100,0000	3,64974928
3	0	102,5000	3,64973021
3	0	105,0000	3,64963484
3	0	107,5000	3,64946318
3	0	110,0000	3,64936781
3	0	112,5000	3,64940596
3	0	115,0000	3,64925337
3	0	117,5000	3,64927244
3	0	120,0000	3,64902449
3	0	122,5000	3,64904356
3	0	125,0000	3,64881468
3	0	127,5000	3,64877653
3	0	130,0000	3,64870024
3	0	132,5000	3,64868116
3	0	135,0000	3,64849043
3	0	137,5000	3,64831877
3	0	140,0000	3,64835691
3	0	142,5000	3,64833784
3	0	145,0000	3,64818525
3	0	147,5000	3,64807081
3	0	150,0000	3,64795637
3	0	152,5000	3,64778471
3	0	155,0000	3,64774656
3	0	157,5000	3,64770842
3	0	160,0000	3,64763212
3	0	162,5000	3,64751768
3	0	165,0000	3,64742231
3	0	167,5000	3,64732695
3	0	170,0000	3,64719343
3	0	172,5000	3,64713621
3	0	175,0000	3,64704084
3	0	177,5000	3,64694548
3	0	180,0000	3,64688826
3	0	182,5000	3,64671659
3	0	185,0000	3,64667845
3	0	187,5000	3,64665937
3	0	190,0000	3,64662123
3	0	192,5000	3,64639235
3	0	195,0000	3,64629698
3	0	197,5000	3,64629698
3	0	200,0000	3,64604902
3	0	202,5000	3,64604902
3	0	205,0000	3,64589643
3	0	207,5000	3,64576292
3	0	210,0000	3,64576292
3	0	212,5000	3,64559126
3	0	215,0000	3,64561033
3	0	217,5000	3,64549589
3	0	220,0000	3,64538145
3	0	222,5000	3,64522886
3	0	225,0000	3,64520979
3	0	227,5000	3,64501905
3	0	230,0000	3,64503813
3	0	232,5000	3,64484739
3	0	235,0000	3,64479017
3	0	237,5000	3,64465666
3	0	240,0000	3,64461851
3	0	242,5000	3,64456129
3	0	245,0000	3,64444685
3	0	247,5000	3,64437056
3	0	250,0000	3,64433241
3	0	252,5000	3,64419889
3	0	255,0000	3,64397001
3	0	257,5000	3,64398909
3	0	260,0000	3,64387465
3	0	262,5000	3,6437602
3	0	265,0000	3,64370298
3	0	267,5000	3,64372206
3	0	270,0000	3,64349318
3	0	272,5000	3,64341688
3	0	275,0000	3,64328337
3	0	277,5000	3,64316893
3	0	280,0000	3,64313078
3	0	282,5000	3,64303541
3	0	285,0000	3,64288282
3	0	287,5000	3,64278746
3	0	290,0000	3,64271116
3	0	292,5000	3,64257765
3	0	295,0000	3,64250135
3	0	297,5000	3,64234877
3	0	300,0000	3,64183378
3	0	302,5000	3,64185286
3	0	305,0000	3,64164305
3	0	307,5000	3,64162397
3	0	310,0000	3,64156675
3	0	312,5000	3,64135695
3	0	315,0000	3,64133787
3	0	317,5000	3,64118528
3	0	320,0000	3,64107084
3	0	322,5000	3,64089918
3	0	325,0000	3,64089918
3	0	327,5000	3,64072752
3	0	330,0000	3,64061308
3	0	332,5000	3,64057493
3	0	335,0000	3,64040327
3	0	337,5000	3,64019346
3	0	340,0000	3,64046049
3	0	342,5000	3,64019346
3	0	345,0000	3,64007902
3	0	347,5000	3,63988829
3	0	350,0000	3,63979292
3	0	352,5000	3,63975477
3	0	355,0000	3,63964033
3	0	357,5000	3,63950682
3	0	360,0000	3,6394496
3	0	362,5000	3,6394496
3	0	365,0000	3,63929701
3	0	367,5000	3,63922071
3	0	370,0000	3,63891554
3	0	372,5000	3,63897276
3	0	375,0000	3,63882017
3	0	377,5000	3,6387248
3	0	380,0000	3,63855314
3	0	382,5000	3,6384387
3	0	385,0000	3,63853407
3	0	387,5000	3,6384387
3	0	390,0000	3,6381526
3	0	392,5000	3,63819075
3	0	395,0000	3,63798094
3	0	397,5000	3,63792372
3	0	400,0000	3,63769484
3	0	402,5000	3,63784742
3	0	405,0000	3,63771391
3	0	407,5000	3,63752317
3	0	410,0000	3,63746595
3	0	412,5000	3,63731337
3	0	415,0000	3,63735151
3	0	417,5000	3,63704634
3	0	420,0000	3,63702726
3	0	422,5000	3,63698912
3	0	425,0000	3,63677931
3	0	427,5000	3,63676023
3	0	430,0000	3,63666487
3	0	432,5000	3,63658857
3	0	435,0000	3,63635969
3	0	437,5000	3,63639784
3	0	440,0000	3,6362071
3	0	442,5000	3,63618803
3	0	445,0000	3,63601637
3	0	447,5000	3,635921
3	0	450,0000	3,63571119
3	0	452,5000	3,63584471
3	0	455,0000	3,63573027
3	0	457,5000	3,63548231
3	0	460,0000	3,63544416
3	0	462,5000	3,63529158
3	0	465,0000	3,63517714
3	0	467,5000	3,63504362
3	0	470,0000	3,63508177
3	0	472,5000	3,63491011
3	0	475,0000	3,63489103
3	0	477,5000	3,63468122
3	0	480,0000	3,63458586
3	0	482,5000	3,63443327
3	0	485,0000	3,63435698
3	0	487,5000	3,63424253
3	0	490,0000	3,63429976
3	0	492,5000	3,63412809
3	0	495,0000	3,63388014
3	0	497,5000	3,63384199
3	0	500,0000	3,6337657
3	0	502,5000	3,6336894
3	0	505,0000	3,63353682
3	0	507,5000	3,63332701
3	0	510,0000	3,63338423
3	0	512,5000	3,63325071
3	0	515,0000	3,63307905
3	0	517,5000	3,63296461
3	0	520,0000	3,63288832
3	0	522,5000	3,63277388
3	0	525,0000	3,63269758
3	0	527,5000	3,63264036
3	0	530,0000	3,63244963
3	0	532,5000	3,63244963
3	0	535,0000	3,63225889
3	0	537,5000	3,6321826
3	0	540,0000	3,63214445
3	0	542,5000	3,6318965
3	0	545,0000	3,63176298
3	0	547,5000	3,63180113
3	0	550,0000	3,6318202
3	0	552,5000	3,63170576
3	0	555,0000	3,63147688
3	0	557,5000	3,63134336
3	0	560,0000	3,63130522
3	0	562,5000	3,63126707
3	0	565,0000	3,63109541
3	0	567,5000	3,63094282
3	0	570,0000	3,63090467
3	0	572,5000	3,63079023
3	0	575,0000	3,63069487
3	0	577,5000	3,63054228
3	0	580,0000	3,63038969
3	0	582,5000	3,63042784
3	0	585,0000	3,6302371
3	0	587,5000	3,63008451
3	0	590,0000	3,63006544
3	0	592,5000	3,62987471
3	0	595,0000	3,62968397
3	0	597,5000	3,6295886
3	0	600,0000	3,62955046

File: Al_Struktur_01_02_OCV_C03.mpt
EC-Lab ASCII FILE
Nb header lines : 43

Open Circuit Voltage

Run on channel : 3 (SN 6987)
Grouped channel(s) : 3
User :
CE vs. WE compliance from -10 V to 10 V
Electrode connection : standard
Ewe ctrl range : min = -10,00 V, max = 10,00 V
Acquisition started on : 03.11.2015 16:50:59
Saved on :
	File : Al_Struktur_01_02_OCV_C03.mpr
	Directory : C:\Hupfer\Studenten Batterietests\SemArbeitToph\
	Host : 192.168.0.2
Device : VMP3 (SN 0324)
Address : 192.168.0.1
EC-Lab for windows v10.33 (software)
Internet server v10.33 (firmware)
Command interpretor v10.32 (firmware)
Electrode material :
Initial state :
Electrolyte :
Comments :
Mass of active material : 0,001 mg
 at x = 0,000
Molecular weight of active material (at x = 0) : 0,001 g/mol
Atomic weight of intercalated ion : 0,001 g/mol
Acquisition started at : xo = 0,000
Number of e- transfered per intercalated ion : 1
for DX = 1, DQ = 26,801 mA.h
Battery capacity : 0,000 A.h
Electrode surface area : 0,001 cm²
Characteristic mass : 0,001 g
tR (h:m:s)          0:10:0,0000
dER/dt (mV/h)       1,0
dER (mV)            1,00
dtR (s)             0,5000
E range min (V)     -10,000
E range max (V)     10,000

mode	error	time/s	Ewe/V
3	0	21749,9215	4,20330667
3	0	21752,4215	4,20323038
3	0	21754,9215	4,20332575
3	0	21757,4215	4,20336342
3	0	21759,9215	4,20330667
3	0	21762,4215	4,20324945
3	0	21764,9215	4,20324945
3	0	21767,4215	4,20332575
3	0	21769,9215	4,20319223
3	0	21772,4215	4,2032876
3	0	21774,9215	4,20321131
3	0	21777,4215	4,20332575
3	0	21779,9215	4,20323038
3	0	21782,4215	4,20326853
3	0	21784,9215	4,2032876
3	0	21787,4215	4,20340157
3	0	21789,9215	4,20323038
3	0	21792,4215	4,20326853
3	0	21794,9215	4,20332575
3	0	21797,4215	4,20332575
3	0	21799,9215	4,20330667
3	0	21802,4215	4,20323038
3	0	21804,9215	4,20324945
3	0	21807,4215	4,20330667
3	0	21809,9215	4,20330667
3	0	21812,4215	4,20340157
3	0	21814,9215	4,20332575
3	0	21817,4215	4,20326853
3	0	21819,9215	4,20338249
3	0	21822,4215	4,20338249
3	0	21824,9215	4,20342064
3	0	21827,4215	4,20336342
3	0	21829,9215	4,20343971
3	0	21832,4215	4,20330667
3	0	21834,9215	4,20338249
3	0	21837,4215	4,20338249
3	0	21839,9215	4,20347786
3	0	21842,4215	4,20334435
3	0	21844,9215	4,20338249
3	0	21847,4215	4,20336342
3	0	21849,9215	4,20338249
3	0	21852,4215	4,20345879
3	0	21854,9215	4,20343971
3	0	21857,4215	4,20343971
3	0	21859,9215	4,20336342
3	0	21862,4215	4,2032876
3	0	21864,9215	4,20347786
3	0	21867,4215	4,20338249
3	0	21869,9215	4,20347786
3	0	21872,4215	4,20347786
3	0	21874,9215	4,20342064
3	0	21877,4215	4,20347786
3	0	21879,9215	4,20355415
3	0	21882,4215	4,20347786
3	0	21884,9215	4,20336342
3	0	21887,4215	4,20345879
3	0	21889,9215	4,20355415
3	0	21892,4215	4,20355415
3	0	21894,9215	4,2035923
3	0	21897,4215	4,20347786
3	0	21899,9215	4,20357323
3	0	21902,4215	4,20345879
3	0	21904,9215	4,20355415
3	0	21907,4215	4,20343971
3	0	21909,9215	4,20349693
3	0	21912,4215	4,20340157
3	0	21914,9215	4,20357323
3	0	21917,4215	4,20363045
3	0	21919,9215	4,20355415
3	0	21922,4215	4,20364952
3	0	21924,9215	4,20349693
3	0	21927,4215	4,2035923
3	0	21929,9215	4,20347786
3	0	21932,4215	4,20355415
3	0	21934,9215	4,20366859
3	0	21937,4215	4,20355415
3	0	21939,9215	4,20357323
3	0	21942,4215	4,20357323
3	0	21944,9215	4,20351601
3	0	21947,4215	4,20361137
3	0	21949,9215	4,20361137
3	0	21952,4215	4,20366859
3	0	21954,9215	4,20363045
3	0	21957,4215	4,20345879
3	0	21959,9215	4,20347786
3	0	21962,4215	4,20363045
3	0	21964,9215	4,20361137
3	0	21967,4215	4,20364952
3	0	21969,9215	4,20351601
3	0	21972,4215	4,20349693
3	0	21974,9215	4,20363045
3	0	21977,4215	4,20357323
3	0	21979,9215	4,20361137
3	0	21982,4215	4,20364952
3	0	21984,9215	4,2035923
3	0	21987,4215	4,20355415
3	0	21989,9215	4,2035923
3	0	21992,4215	4,2035923
3	0	21994,9215	4,20361137
3	0	21997,4215	4,20351601
3	0	21999,9215	4,20353508
3	0	22002,4215	4,20351601
3	0	22004,9215	4,20347786
3	0	22007,4215	4,20355415
3	0	22009,9215	4,20366859
3	0	22012,4215	4,20353508
3	0	22014,9215	4,20368767
3	0	22017,4215	4,20355415
3	0	22019,9215	4,20357323
3	0	22022,4215	4,20349693
3	0	22024,9215	4,20361137
3	0	22027,4215	4,20357323
3	0	22029,9215	4,20370674
3	0	22032,4215	4,20355415
3	0	22034,9215	4,2035923
3	0	22037,4215	4,20361137
3	0	22039,9215	4,20347786
3	0	22042,4215	4,20355415
3	0	22044,9215	4,2035923
3	0	22047,4215	4,20351601
3	0	22049,9215	4,20357323
3	0	22052,4215	4,20357323
3	0	22054,9215	4,20364952
3	0	22057,4215	4,20357323
3	0	22059,9215	4,20366859
3	0	22062,4215	4,20357323
3	0	22064,9215	4,20355415
3	0	22067,4215	4,20368767
3	0	22069,9215	4,20372581
3	0	22072,4215	4,20376396
3	0	22074,9215	4,20368767
3	0	22077,4215	4,20366859
3	0	22079,9215	4,20368767
3	0	22082,4215	4,20364952
3	0	22084,9215	4,20380211
3	0	22087,4215	4,20382118
3	0	22089,9215	4,20380211
3	0	22092,4215	4,20366859
3	0	22094,9215	4,20372581
3	0	22097,4215	4,20380211
3	0	22099,9215	4,20368767
3	0	22102,4215	4,20376396
3	0	22104,9215	4,20378304
3	0	22107,4215	4,20378304
3	0	22109,9215	4,20378304
3	0	22112,4215	4,20391655
3	0	22114,9215	4,20374489
3	0	22117,4215	4,20376396
3	0	22119,9215	4,20380211
3	0	22122,4215	4,20389748
3	0	22124,9215	4,20389748
3	0	22127,4215	4,20376396
3	0	22129,9215	4,2038784
3	0	22132,4215	4,20376396
3	0	22134,9215	4,20378304
3	0	22137,4215	4,20374489
3	0	22139,9215	4,20393562
3	0	22142,4215	4,20380211
3	0	22144,9215	4,20385933
3	0	22147,4215	4,20380211
3	0	22149,9215	4,2038784
3	0	22152,4215	4,2038784
3	0	22154,9215	4,20384026
3	0	22157,4215	4,20380211
3	0	22159,9215	4,20376396
3	0	22162,4215	4,20374489
3	0	22164,9215	4,20380211
3	0	22167,4215	4,20376396
3	0	22169,9215	4,20370674
3	0	22172,4215	4,20366859
3	0	22174,9215	4,20368767
3	0	22177,4215	4,20372581
3	0	22179,9215	4,20368767
3	0	22182,4215	4,20370674
3	0	22184,9215	4,20372581
3	0	22187,4215	4,20376396
3	0	22189,9215	4,20363045
3	0	22192,4215	4,20370674
3	0	22194,9215	4,20372581
3	0	22197,4215	4,20374489
3	0	22199,9215	4,20370674
3	0	22202,4215	4,20364952
3	0	22204,9215	4,20374489
3	0	22207,4215	4,20363045
3	0	22209,9215	4,20372581
3	0	22212,4215	4,20374489
3	0	22214,9215	4,20364952
3	0	22217,4215	4,20370674
3	0	22219,9215	4,20374489
3	0	22222,4215	4,20368767
3	0	22224,9215	4,20380211
3	0	22227,4215	4,20372581
3	0	22229,9215	4,20368767
3	0	22232,4215	4,20372581
3	0	22234,9215	4,20368767
3	0	22237,4215	4,20361137
3	0	22239,9215	4,20357323
3	0	22242,4215	4,20376396
3	0	22244,9215	4,20349693
3	0	22247,4215	4,20363045
3	0	22249,9215	4,20355415
3	0	22252,4215	4,20366859
3	0	22254,9215	4,20361137
3	0	22257,4215	4,20366859
3	0	22259,9215	4,20355415
3	0	22262,4215	4,20372581
3	0	22264,9215	4,2035923
3	0	22267,4215	4,20361137
3	0	22269,9215	4,2035923
3	0	22272,4215	4,2035923
3	0	22274,9215	4,20355415
3	0	22277,4215	4,20370674
3	0	22279,9215	4,20357323
3	0	22282,4215	4,2035923
3	0	22284,9215	4,20357323
3	0	22287,4215	4,20366859
3	0	22289,9215	4,20363045
3	0	22292,4215	4,20364952
3	0	22294,9215	4,20357323
3	0	22297,4215	4,20368767
3	0	22299,9215	4,20361137
3	0	22302,4215	4,20357323
3	0	22304,9215	4,20361137
3	0	22307,4215	4,20364952
3	0	22309,9215	4,20364952
3	0	22312,4215	4,20357323
3	0	22314,9215	4,20361137
3	0	22317,4215	4,20393562
3	0	22319,9215	4,2039547
3	0	22322,4215	4,20399284
3	0	22324,9215	4,20403099
3	0	22327,4215	4,20410728
3	0	22329,9215	4,20408821
3	0	22332,4215	4,20403099
3	0	22334,9215	4,20410728
3	0	22337,4215	4,20408821
3	0	22339,9215	4,20401192
3	0	22342,4215	4,20403099
3	0	22344,9215	4,20405006
3	0	22347,4215	4,20414543
3	0	22349,9215	4,20399284