Folder: thesis/Experimentelles/Rohdaten/Batteriemessungen/AlteZelle/Studenten_Batterietests/SemArbeitToph/ECLab-Export (part 7)

File: Al_Struktur_01_Zyklieren_04_OCV_C03.mpt
EC-Lab ASCII FILE
Nb header lines : 46

Open Circuit Voltage

Run on channel : 3 (SN 6987)
Grouped channel(s) : 3
User :
CE vs. WE compliance from -10 V to 10 V
Electrode connection : standard
Ewe ctrl range : min = 0,00 V, max = 5,00 V
Acquisition started on : 03.16.2015 02:19:29
Saved on :
	File : Al_Struktur_01_Zyklieren_04_OCV_C03.mpr
	Directory : C:\Hupfer\Studenten Batterietests\SemArbeitToph\
	Host : 192.168.0.2
Device : VMP3 (SN 0324)
Address : 192.168.0.1
EC-Lab for windows v10.33 (software)
Internet server v10.33 (firmware)
Command interpretor v10.32 (firmware)
Electrode material :
Initial state :
Electrolyte :
Comments :
Mass of active material : 0,001 mg
 at x = 0,000
Molecular weight of active material (at x = 0) : 0,001 g/mol
Atomic weight of intercalated ion : 0,001 g/mol
Acquisition started at : xo = 0,000
Number of e- transfered per intercalated ion : 1
for DX = 1, DQ = 26,801 mA.h
Battery capacity : 0,000 A.h
Electrode surface area : 0,001 cm²
Characteristic mass : 0,001 g
tR (h:m:s)          0:10:0,0000
dER/dt (mV/h)       1,0
dER (mV)            1,00
dtR (s)             0,5000
E range min (V)     0,000
E range max (V)     5,000

Number of loops : 1
Loop 0 from point number 0 to 1200

mode	error	time/s	Ewe/V
3	0	20672,0313	3,24127698
3	0	20674,5313	3,24215388
3	0	20677,0313	3,24318337
3	0	20679,5313	3,24430823
3	0	20682,0313	3,2452805
3	0	20684,5313	3,24611926
3	0	20687,0313	3,24724388
3	0	20689,5313	3,24819708
3	0	20692,0313	3,24909306
3	0	20694,5313	3,24998903
3	0	20697,0313	3,25098038
3	0	20699,5313	3,25187635
3	0	20702,0313	3,25277233
3	0	20704,5313	3,25368738
3	0	20707,0313	3,25467873
3	0	20709,5313	3,25540328
3	0	20712,0313	3,2563374
3	0	20714,5313	3,25723338
3	0	20717,0313	3,25820565
3	0	20719,5313	3,25892997
3	0	20722,0313	3,25995946
3	0	20724,5313	3,26072192
3	0	20727,0313	3,2616179
3	0	20729,5313	3,26236153
3	0	20732,0313	3,26327658
3	0	20734,5313	3,26417255
3	0	20737,0313	3,26474428
3	0	20739,5313	3,26569748
3	0	20742,0313	3,26647925
3	0	20744,5313	3,26731801
3	0	20747,0313	3,2680614
3	0	20749,5313	3,2689383
3	0	20752,0313	3,26966286
3	0	20754,5313	3,27029181
3	0	20757,0313	3,2711308
3	0	20759,5313	3,27195048
3	0	20762,0313	3,27273202
3	0	20764,5313	3,27345634
3	0	20767,0313	3,27425718
3	0	20769,5313	3,2749815
3	0	20772,0313	3,27572513
3	0	20774,5313	3,27646852
3	0	20777,0313	3,2772119
3	0	20779,5313	3,27799368
3	0	20782,0313	3,27862263
3	0	20784,5313	3,27930903
3	0	20787,0313	3,27993798
3	0	20789,5313	3,28064346
3	0	20792,0313	3,28125358
3	0	20794,5313	3,28207326
3	0	20797,0313	3,28274035
3	0	20799,5313	3,28352213
3	0	20802,0313	3,28424644
3	0	20804,5313	3,28481841
3	0	20807,0313	3,28550458
3	0	20809,5313	3,28607655
3	0	20812,0313	3,28678203
3	0	20814,5313	3,28744912
3	0	20817,0313	3,2881546
3	0	20819,5313	3,28870726
3	0	20822,0313	3,28931737
3	0	20824,5313	3,28990841
3	0	20827,0313	3,29059458
3	0	20829,5313	3,29114747
3	0	20832,0313	3,29185295
3	0	20834,5313	3,29250097
3	0	20837,0313	3,29328251
3	0	20839,5313	3,29368305
3	0	20842,0313	3,29435015
3	0	20844,5313	3,29496026
3	0	20847,0313	3,29558921
3	0	20849,5313	3,29616117
3	0	20852,0313	3,29682851
3	0	20854,5313	3,29722881
3	0	20857,0313	3,29778171
3	0	20859,5313	3,29848695
3	0	20862,0313	3,29905891
3	0	20864,5313	3,29970717
3	0	20867,0313	3,3001647
3	0	20869,5313	3,30088902
3	0	20872,0313	3,30132747
3	0	20874,5313	3,30186129
3	0	20877,0313	3,3025856
3	0	20879,5313	3,30308127
3	0	20882,0313	3,30351973
3	0	20884,5313	3,30412984
3	0	20887,0313	3,30468273
3	0	20889,5313	3,30515933
3	0	20892,0313	3,30578828
3	0	20894,5313	3,30630302
3	0	20897,0313	3,30685592
3	0	20899,5313	3,30740881
3	0	20902,0313	3,30786633
3	0	20904,5313	3,30836201
3	0	20907,0313	3,30889583
3	0	20909,5313	3,3095057
3	0	20912,0313	3,3099823
3	0	20914,5313	3,31053519
3	0	20917,0313	3,31099272
3	0	20919,5313	3,31152654
3	0	20922,0313	3,3120985
3	0	20924,5313	3,31251788
3	0	20927,0313	3,31307077
3	0	20929,5313	3,31347108
3	0	20932,0313	3,31396675
3	0	20934,5313	3,31461477
3	0	20937,0313	3,31495786
3	0	20939,5313	3,31551075
3	0	20942,0313	3,31598735
3	0	20944,5313	3,31652117
3	0	20947,0313	3,31701684
3	0	20949,5313	3,31747437
3	0	20952,0313	3,31804633
3	0	20954,5313	3,31837034
3	0	20957,0313	3,31882787
3	0	20959,5313	3,31945705
3	0	20962,0313	3,31980014
3	0	20964,5313	3,32029581
3	0	20967,0313	3,32071519
3	0	20969,5313	3,32113457
3	0	20972,0313	3,32174468
3	0	20974,5313	3,32197332
3	0	20977,0313	3,32254529
3	0	20979,5313	3,32298374
3	0	20982,0313	3,32332683
3	0	20984,5313	3,32395601
3	0	20987,0313	3,32428002
3	0	20989,5313	3,32479477
3	0	20992,0313	3,32511878
3	0	20994,5313	3,32567167
3	0	20997,0313	3,32607198
3	0	20999,5313	3,32649136
3	0	21002,0313	3,32692981
3	0	21004,5313	3,32733035
3	0	21007,0313	3,32784486
3	0	21009,5313	3,3282454
3	0	21012,0313	3,32855034
3	0	21014,5313	3,32914138
3	0	21017,0313	3,32944632
3	0	21019,5313	3,32996106
3	0	21022,0313	3,3301897
3	0	21024,5313	3,33087611
3	0	21027,0313	3,33110476
3	0	21029,5313	3,33154321
3	0	21032,0313	3,3319056
3	0	21034,5313	3,3323822
3	0	21037,0313	3,33278251
3	0	21039,5313	3,33318281
3	0	21042,0313	3,33356404
3	0	21044,5313	3,33402157
3	0	21047,0313	3,33438373
3	0	21049,5313	3,33482218
3	0	21052,0313	3,33510828
3	0	21054,5313	3,33558488
3	0	21057,0313	3,33590889
3	0	21059,5313	3,33629012
3	0	21062,0313	3,33682394
3	0	21064,5313	3,33724332
3	0	21067,0313	3,33741498
3	0	21069,5313	3,33773899
3	0	21072,0313	3,33833003
3	0	21074,5313	3,33861589
3	0	21077,0313	3,3390162
3	0	21079,5313	3,33932137
3	0	21082,0313	3,33968353
3	0	21084,5313	3,3401792
3	0	21087,0313	3,34048414
3	0	21089,5313	3,3407321
3	0	21092,0313	3,34122753
3	0	21094,5313	3,34166598
3	0	21097,0313	3,34189487
3	0	21099,5313	3,3422761
3	0	21102,0313	3,34273362
3	0	21104,5313	3,34307671
3	0	21107,0313	3,34340096
3	0	21109,5313	3,34380126
3	0	21112,0313	3,34425879
3	0	21114,5313	3,34454465
3	0	21117,0313	3,34483075
3	0	21119,5313	3,34519291
3	0	21122,0313	3,34555507
3	0	21124,5313	3,34591722
3	0	21127,0313	3,34624147
3	0	21129,5313	3,346699
3	0	21132,0313	3,34698486
3	0	21134,5313	3,34723258
3	0	21137,0313	3,3475759
3	0	21139,5313	3,34789991
3	0	21142,0313	3,34839559
3	0	21144,5313	3,34870052
3	0	21147,0313	3,34906268
3	0	21149,5313	3,34934878
3	0	21152,0313	3,34963465
3	0	21154,5313	3,3498826
3	0	21157,0313	3,3504734
3	0	21159,5313	3,35058784
3	0	21162,0313	3,35093093
3	0	21164,5313	3,3512361
3	0	21167,0313	3,351789
3	0	21169,5313	3,35197949
3	0	21172,0313	3,35234165
3	0	21174,5313	3,35264683
3	0	21177,0313	3,35302806
3	0	21179,5313	3,35331392
3	0	21182,0313	3,35358095
3	0	21184,5313	3,35405755
3	0	21187,0313	3,35430527
3	0	21189,5313	3,35457206
3	0	21192,0313	3,35487723
3	0	21194,5313	3,35520124
3	0	21197,0313	3,3555634
3	0	21199,5313	3,35583043
3	0	21202,0313	3,35615444
3	0	21204,5313	3,3564024
3	0	21207,0313	3,35682178
3	0	21209,5313	3,35705042
3	0	21212,0313	3,35741258
3	0	21214,5313	3,35773683
3	0	21217,0313	3,35807991
3	0	21219,5313	3,35825133
3	0	21222,0313	3,3586328
3	0	21224,5313	3,35893774
3	0	21227,0313	3,35916662
3	0	21229,5313	3,35952878
3	0	21232,0313	3,35987186
3	0	21234,5313	3,36015773
3	0	21237,0313	3,36052012
3	0	21239,5313	3,36078691
3	0	21242,0313	3,36097765
3	0	21244,5313	3,36122537
3	0	21247,0313	3,36164474
3	0	21249,5313	3,36191177
3	0	21252,0313	3,36219764
3	0	21254,5313	3,36250257
3	0	21257,0313	3,36278868
3	0	21259,5313	3,36301732
3	0	21262,0313	3,3634367
3	0	21264,5313	3,36360836
3	0	21267,0313	3,36395144
3	0	21269,5313	3,36423755
3	0	21272,0313	3,36454248