Folder: thesis/Experimentelles/Rohdaten/Batteriemessungen/AlteZelle/Studenten_Batterietests/SemArbeitToph/ECLab-Export (part 3)

File: Al_rein_02_Laden_IS_02_PEIS_C01.mpt
EC-Lab ASCII FILE
Nb header lines : 65

Potentio Electrochemical Impedance Spectroscopy

Run on channel : 1 (SN 6985)
Grouped channel(s) : 1
User :
CE vs. WE compliance from -10 V to 10 V
Electrode connection : standard
Ewe ctrl range : min = -10,00 V, max = 10,00 V
Acquisition started on : 03.18.2015 16:28:12
Saved on :
	File : Al_rein_02_Laden_IS_02_PEIS_C01.mpr
	Directory : C:\Hupfer\Studenten Batterietests\SemArbeitToph\
	Host : 192.168.0.2
Device : VMP3 (SN 0324)
Address : 192.168.0.1
EC-Lab for windows v10.33 (software)
Internet server v10.33 (firmware)
Command interpretor v10.32 (firmware)
Electrode material :
Initial state :
Electrolyte :
Comments :
Mass of active material : 0,001 mg
 at x = 0,000
Molecular weight of active material (at x = 0) : 0,001 g/mol
Atomic weight of intercalated ion : 0,001 g/mol
Acquisition started at : xo = 0,000
Number of e- transfered per intercalated ion : 1
for DX = 1, DQ = 26,801 mA.h
Battery capacity : 0,000 A.h
Electrode surface area : 0,001 cm²
Characteristic mass : 0,001 g
Multi Sine          0
E (V)               0,0000
vs.                 Eoc
tE (h:m:s)          0:00:0,0000
record              0
dI                  0,000
unit dI             mA
dt (s)              0,000
fi                  1,000
unit fi             MHz
ff                  500,000
unit ff             mHz
Sel Nd              1
Nd                  6
Nt                  51
Log                 1
Va (mV)             10,0
pw                  0,10
Na                  2
E range min (V)     -10,000
E range max (V)     10,000
I Range             Auto
Bandwidth           5
corr                0
nc cycles           0
goto Ns'            0
nr cycles           0
inc. cycle          0

freq/Hz	Re(Z)/Ohm	-Im(Z)/Ohm	|Z|/Ohm	Phase(Z)/deg	time/s	<Ewe>/V	<I>/mA	Cs/µF	Cp/µF	cycle number	I Range	|Ewe|/V	|I|/A	Re(Y)/Ohm-1	Im(Y)/Ohm-1	|Y|/Ohm-1	Phase(Y)/deg
1000024,25	289,452972	218,048615	362,392365	-36,9911804	62,9310	4,19776106	0,0498101078	0,000729888096	0,000264243834	1	11	0,00392242242	1,08236891E-005	0,00220404239	0,00166033325	0,0027594401	36,9911804
675622,438	275,186279	143,504471	310,356293	-27,5411949	63,2450	4,19958401	0,053843949	0,00164153683	0,000350962247	1	11	0,0102538085	3,30388284E-005	0,00285697007	0,00148985616	0,00322210323	27,5411949
456457,438	295,552063	146,598068	329,91214	-26,3820724	63,6610	4,19977903	0,0538034998	0,00237843674	0,000469625287	1	11	0,0101532806	3,07757109E-005	0,00271542231	0,00134688849	0,00303110993	26,3820724
308398,406	322,865082	160,861267	360,719025	-26,4838905	63,9750	4,19981956	0,0536638945	0,00320816366	0,000638001016	1	11	0,0109957634	3,04829027E-005	0,00248132134	0,00123627018	0,0027722409	26,4838905
208361,797	356,208374	183,183365	400,550323	-27,214901	64,2890	4,19984818	0,053588409	0,00416980777	0,000872115314	1	11	0,0109108947	2,7239761E-005	0,0022201892	0,00114175223	0,00249656523	27,214901
140771,469	393,781464	212,956253	447,676453	-28,404438	64,6040	4,19984579	0,0535132959	0,00530902902	0,00120134396	1	11	0,0106906034	2,38802004E-005	0,00196483801	0,00106258062	0,00223375601	28,404438
95104,9688	439,849792	249,783142	505,825531	-29,5914974	64,9180	4,19986248	0,053414695	0,00669967663	0,0016337235	1	11	0,0105742253	2,09048867E-005	0,00171910692	0,000976251264	0,00197696616	29,5914974
64257,8047	493,30304	296,526978	575,565918	-31,0102921	65,4660	4,19981766	0,0515583158	0,00835276116	0,00221701339	1	12	0,00953099877	1,65593519E-005	0,00148909923	0,000895105186	0,00173742045	31,0102921
43408,1992	558,15094	350,071381	658,849304	-32,095871	65,7800	4,19983244	0,0514562875	0,0104734981	0,00295687397	1	12	0,0105014127	1,59390202E-005	0,00128581794	0,000806462951	0,00151779782	32,095871
29333,4883	634,107422	417,561829	759,243103	-33,365036	66,0940	4,1998353	0,0513915047	0,0129937828	0,00393020734	1	12	0,010458827	1,37753332E-005	0,0011000213	0,000724367681	0,00131710118	33,365036
19812,0098	723,40918	500,671814	879,768799	-34,6871262	66,4080	4,19982767	0,0513089895	0,0160449538	0,00519646052	1	12	0,0103462348	1,17601749E-005	0,000934645534	0,000646868604	0,00113666232	34,6871262
13391,1094	832,921021	603,276733	1028,44556	-35,9154549	66,7220	4,19982481	0,0512266345	0,0197009426	0,00677887397	1	12	0,0100138057	9,73683655E-006	0,000787483063	0,00057036645	0,000972341222	35,9154549
9040,93652	968,124573	732,132568	1213,78882	-37,0979576	66,9972	4,19989586	0,0511958599	0,0240445677	0,00874802843	1	12	0,01004354	8,27453641E-006	0,000657120429	0,000496939465	0,000823866518	37,0979576
6110,23389	1136,75513	885,776184	1441,11475	-37,926239	67,3825	4,19987297	0,0510427728	0,0294061601	0,0111093642	1	12	0,00916905235	6,36247205E-006	0,000547355914	0,000426507671	0,000693907263	37,926239
4131,0332	1356,3147	1073,14783	1729,51892	-38,3518677	67,8353	4,19988966	0,0509576797	0,0359006152	0,0138219837	1	12	0,00932162721	5,38972245E-006	0,000453429529	0,000358764024	0,000578195439	38,3518677
2787,32349	1631,76685	1261,81409	2062,72583	-37,7140961	68,2863	4,19988632	0,0508400798	0,0452519618	0,0169334374	1	12	0,0095042875	4,60763476E-006	0,000383508566	0,000296559854	0,000484795397	37,7140961
1883,19141	1961,4281	1467,14404	2449,43091	-36,7964096	68,7373	4,19989252	0,0507321283	0,0576040372	0,0206665527	1	12	0,00957044028	3,9072097E-006	0,000326920388	0,000244535739	0,000408258085	36,7964096
1273,77686	2351,51782	1675,50073	2887,37573	-35,4705887	69,1883	4,19989157	0,0505975708	0,0745730922	0,0251110457	1	12	0,00959635619	3,32355648E-006	0,000282060122	0,000200973154	0,000346335262	35,4705887
859,17511	2789,75293	1874,08752	3360,79248	-33,8922348	69,6393	4,19988966	0,0504773706	0,0988436118	0,030735828	1	12	0,00960471388	2,85787178E-006	0,000246991694	0,000165922946	0,000297548861	33,8922348
580,929382	3284,18433	2068,04858	3881,06836	-32,1985893	70,0898	4,19988728	0,0503650606	0,132475644	0,0376144685	1	12	0,00960494019	2,47481853E-006	0,000218034373	0,000137296069	0,000257661013	32,1985893
392,612793	3822,677	2255,87817	4438,67627	-30,5461502	70,5443	4,19988775	0,0502388701	0,179696679	0,0464156456	1	12	0,00960620586	2,16420517E-006	0,000194026332	0,00011450085	0,000225292388	30,5461502
265,424622	4424,92285	2469,57349	5067,41895	-29,1661243	70,9948	4,19988728	0,0501262061	0,242804646	0,0576669872	1	12	0,00960873719	1,89617981E-006	0,000172318571	9,6171927E-005	0,000197339119	29,1661243
179,368607	5054,97168	2690,14868	5726,22363	-28,0209599	71,4479	4,1998868	0,0500221364	0,329835504	0,0727969781	1	12	0,00960395392	1,67718804E-006	0,000154163688	8,2042643E-005	0,000174635163	28,0209599
121,124016	5751,19287	2958,16577	6467,37695	-27,2193375	71,8953	4,19988585	0,0499026552	0,444188595	0,0929300189	1	12	0,00960378069	1,48495758E-006	0,00013749965	7,07238942E-005	0,00015462219	27,2193375
81,8062515	6507,54199	3132,77588	7222,35352	-25,7064857	72,3367	4,19988585	0,0498056412	0,621018171	0,116843745	1	12	0,00960430969	1,32980335E-006	0,000124755446	6,0058137E-005	0,000138459029	25,7064857
55,2297401	7439,81396	3308,08008	8142,12646	-23,9721088	72,7863	4,19989109	0,049693048	0,871106267	0,14379622	1	12	0,00960201398	1,17930051E-006	0,000112224159	4,98999725E-005	0,000122818034	23,9721088
37,3548431	8397,30469	3387,87939	9054,96875	-21,9715328	73,2105	4,19988537	0,0495986566	1,25760794	0,176046446	1	12	0,0096052764	1,06077414E-006	0,000102415579	4,13193993E-005	0,000110436602	21,9715328
25,2341652	9386,18555	3562,31055	10039,4492	-20,7831039	73,6583	4,19989252	0,0494897924	1,77051425	0,222917005	1	12	0,00960365962	9,56592316E-007	9,31256654E-005	3,5343699E-005	9,96070594E-005	20,7831039
17,0330601	10532,2949	3371,50293	11058,7646	-17,7504368	74,0592	4,19988108	0,0493987761	2,77143002	0,257595211	1	12	0,00960182399	8,68254688E-007	8,61211447E-005	2,75683196E-005	9,0426016E-005	17,7504368
11,5228605	11299,998	2962,80615	11681,959	-14,6919689	74,4547	4,19987869	0,0493018366	4,66183138	0,29986909	1	12	0,00960283168	8,220224E-007	8,28031771E-005	2,17106008E-005	8,56020779E-005	14,6919689
7,77362823	12003,5781	2565,25879	12274,626	-12,063097	75,3295	4,19989157	0,0490113944	7,98114443	0,348586857	1	13	0,00960321166	7,82362861E-007	7,96698805E-005	1,70260791E-005	8,14688756E-005	12,063097
5,25033522	12797,4375	1868,53735	12933,1299	-8,30698395	75,7616	4,19988537	0,0489093363	16,2230053	0,33863169	1	13	0,00960179511	7,42418536E-007	7,65095683E-005	1,11710633E-005	7,73208012E-005	8,30698395
3,54791069	13580,3408	1626,97656	13677,4521	-6,83169174	76,3850	4,19989586	0,0487762466	27,5718651	0,39013806	1	13	0,0096076075	7,02441298E-007	7,25939244E-005	8,69702853E-006	7,31130349E-005	6,83169174
2,39647198	13607,0908	1835,60217	13730,3447	-7,68284369	77,2905	4,19989729	0,0485894904	36,1800537	0,646641314	1	13	0,00960622076	6,9963437E-007	7,21775941E-005	9,73678743E-006	7,28313826E-005	7,68284369
1,62219644	13129,874	1565,7677	13222,9053	-6,80053759	78,6139	4,19990253	0,0482980236	62,6598511	0,878598034	1	13	0,00960203912	7,26167116E-007	7,50942709E-005	8,95516405E-006	7,56263471E-005	6,80053759
1,09602952	12683,7383	642,96991	12700,0244	-2,90197992	80,5579	4,19990873	0,0479039438	225,843307	0,578867853	1	13	0,0096015241	7,56024065E-007	7,86390301E-005	3,98640577E-006	7,87400058E-005	2,90197992
0,739819586	12811,5752	-500,312622	12821,3408	2,23635602	83,4247	4,19991064	0,0473536775	-429,984558	-0,654739976	1	13	0,00960287172	7,48975594E-007	7,79355614E-005	-3,04350897E-006	7,79949623E-005	-2,23635602
0,499264985	13559,7637	-2041,52588	13712,5859	8,56200981	87,6609	4,19990969	0,046542272	-156,147186	-3,46102858	1	13	0,00960482098	7,00438363E-007	7,21129763E-005	-1,08571585E-005	7,29257081E-005	-8,56200981

File: Al_Sand_01_02_OCV_C02.mpt
EC-Lab ASCII FILE
Nb header lines : 43

Open Circuit Voltage

Run on channel : 2 (SN 6986)
Grouped channel(s) : 2
User :
CE vs. WE compliance from -10 V to 10 V
Electrode connection : standard
Ewe ctrl range : min = -10,00 V, max = 10,00 V
Acquisition started on : 03.11.2015 16:05:34
Saved on :
	File : Al_Sand_01_02_OCV_C02.mpr
	Directory : C:\Hupfer\Studenten Batterietests\SemArbeitToph\
	Host : 192.168.0.2
Device : VMP3 (SN 0324)
Address : 192.168.0.1
EC-Lab for windows v10.33 (software)
Internet server v10.33 (firmware)
Command interpretor v10.32 (firmware)
Electrode material :
Initial state :
Electrolyte :
Comments :
Mass of active material : 0,001 mg
 at x = 0,000
Molecular weight of active material (at x = 0) : 0,001 g/mol
Atomic weight of intercalated ion : 0,001 g/mol
Acquisition started at : xo = 0,000
Number of e- transfered per intercalated ion : 1
for DX = 1, DQ = 26,801 mA.h
Battery capacity : 0,000 A.h
Electrode surface area : 0,001 cm²
Characteristic mass : 0,001 g
tR (h:m:s)          0:10:0,0000
dER/dt (mV/h)       1,0
dER (mV)            1,00
dtR (s)             0,5000
E range min (V)     -10,000
E range max (V)     10,000

mode	error	time/s	Ewe/V
3	0	92781,9028	4,19891548
3	0	92783,9978	4,19431877
3	0	92786,4978	4,19063759
3	0	92788,9978	4,18749046
3	0	92791,4978	4,18510628
3	0	92793,9978	4,18297005
3	0	92796,4978	4,18140602
3	0	92798,9978	4,18003273
3	0	92801,4978	4,17856407
3	0	92803,9978	4,1775341
3	0	92806,4978	4,17673302
3	0	92808,9978	4,17629433
3	0	92811,4978	4,17534065
3	0	92813,9978	4,17457771
3	0	92816,4978	4,17461586
3	0	92818,9978	4,17400551
3	0	92821,4978	4,17310905
3	0	92823,9978	4,17272758
3	0	92826,4978	4,17255592
3	0	92828,9978	4,17236519
3	0	92831,4978	4,17139244
3	0	92833,9978	4,17082024
3	0	92836,4978	4,17041969
3	0	92838,9978	4,17001915
3	0	92841,4978	4,16994286
3	0	92843,9978	4,16942787
3	0	92846,4978	4,16937065
3	0	92848,9977	4,16908455
3	0	92851,4977	4,16908455
3	0	92853,9977	4,16870308
3	0	92856,4977	4,16851234
3	0	92858,9977	4,1683979
3	0	92861,4977	4,16837883
3	0	92863,9977	4,16826439
3	0	92866,4977	4,16803551
3	0	92868,9977	4,1677494
3	0	92871,4977	4,16761589
3	0	92873,9977	4,16765404
3	0	92876,4977	4,16744423
3	0	92878,9977	4,16719627
3	0	92881,4977	4,16734886
3	0	92883,9977	4,16719627
3	0	92886,4977	4,16677666
3	0	92888,9977	4,16685295
3	0	92891,4977	4,16649055
3	0	92893,9977	4,16622353
3	0	92896,4977	4,16639519
3	0	92898,9977	4,16609001
3	0	92901,4977	4,16549873
3	0	92903,9977	4,16549873
3	0	92906,4977	4,16525078
3	0	92908,9977	4,16496468
3	0	92911,4977	4,16506004
3	0	92913,9977	4,16506004
3	0	92916,4977	4,16464043
3	0	92918,9977	4,16485023
3	0	92921,4977	4,16475487
3	0	92923,9977	4,16422081
3	0	92926,4977	4,16448784
3	0	92928,9977	4,16425896
3	0	92931,4977	4,16433525
3	0	92933,9977	4,16406822
3	0	92936,4977	4,16397285
3	0	92938,9977	4,16393471
3	0	92941,4977	4,16376305
3	0	92943,9977	4,16349602
3	0	92946,4977	4,16324806
3	0	92948,9977	4,16303825
3	0	92951,4977	4,16300011
3	0	92953,9977	4,16286659
3	0	92956,4977	4,16275215
3	0	92958,9977	4,16240883
3	0	92961,4977	4,16261864
3	0	92963,9977	4,16240883
3	0	92966,4977	4,16223717
3	0	92968,9977	4,16233253
3	0	92971,4977	4,1621418
3	0	92973,9977	4,16189384
3	0	92976,4977	4,16231346
3	0	92978,9977	4,16200829
3	0	92981,4977	4,16160774
3	0	92983,9977	4,16153145
3	0	92986,4977	4,16109276
3	0	92988,9977	4,16164589
3	0	92991,4977	4,16126442
3	0	92993,9977	4,16130257
3	0	92996,4977	4,16105461
3	0	92998,9977	4,16124535
3	0	93001,4977	4,16109276
3	0	93003,9977	4,16099739
3	0	93006,4977	4,1609211
3	0	93008,9977	4,16065407
3	0	93011,4977	4,16067314
3	0	93013,9977	4,16052055
3	0	93016,4977	4,16034889
3	0	93018,9977	4,16031075
3	0	93021,4977	4,16036797
3	0	93023,9977	4,16021538
3	0	93026,4977	4,15996742
3	0	93028,9977	4,16012001
3	0	93031,4977	4,16000557
3	0	93033,9977	4,1596055
3	0	93036,4977	4,15979576
3	0	93038,9977	4,15954828
3	0	93041,4977	4,15935755
3	0	93043,9977	4,15930033
3	0	93046,4977	4,15912867
3	0	93048,9977	4,15994835
3	0	93051,4977	4,15924311
3	0	93053,9977	4,15949106
3	0	93056,4977	4,15937662
3	0	93058,9977	4,15889978
3	0	93061,4977	4,15901423
3	0	93063,9977	4,15886164
3	0	93066,4977	4,15889978
3	0	93068,9977	4,15897608
3	0	93071,4977	4,15870905
3	0	93073,9977	4,15849924
3	0	93076,4977	4,15865183
3	0	93078,9977	4,15865183
3	0	93081,4977	4,15857553
3	0	93083,9977	4,15842295
3	0	93086,4977	4,15815592
3	0	93088,9977	4,15804148
3	0	93091,4977	4,15813684
3	0	93093,9977	4,15792704
3	0	93096,4977	4,1578126
3	0	93098,9977	4,15771723
3	0	93101,4977	4,15767908
3	0	93103,9977	4,15764093
3	0	93106,4977	4,15777445
3	0	93108,9977	4,15758371
3	0	93111,4977	4,15735483
3	0	93113,9977	4,15735483
3	0	93116,4977	4,15731668
3	0	93118,9977	4,15737391
3	0	93121,4977	4,15725946
3	0	93123,9977	4,15737391
3	0	93126,4977	4,15735483
3	0	93128,9977	4,15741205
3	0	93131,4977	4,15724039
3	0	93133,9977	4,15754557
3	0	93136,4977	4,15733576
3	0	93138,9977	4,15746927
3	0	93141,4977	4,15725946
3	0	93143,9977	4,15729761
3	0	93146,4977	4,15695429
3	0	93148,9977	4,15691614
3	0	93151,4977	4,15701151
3	0	93153,9977	4,15703058
3	0	93156,4977	4,15687799
3	0	93158,9977	4,15697336
3	0	93161,4977	4,15687799
3	0	93163,9977	4,15672541
3	0	93166,4977	4,15668726
3	0	93168,9977	4,15666819
3	0	93171,4977	4,15655375
3	0	93173,9977	4,15642023
3	0	93176,4977	4,15634394
3	0	93178,9977	4,15647745
3	0	93181,4977	4,15611506
3	0	93183,9977	4,1561532
3	0	93186,4977	4,15607691
3	0	93188,9977	4,15579081
3	0	93191,4977	4,15560007
3	0	93193,9977	4,155581
3	0	93196,4977	4,15544748
3	0	93198,9977	4,15569544
3	0	93201,4977	4,15542841
3	0	93203,9977	4,15527582
3	0	93206,4977	4,15514231
3	0	93208,9977	4,15518045
3	0	93211,4977	4,15508509
3	0	93213,9977	4,15510416
3	0	93216,4977	4,15527582
3	0	93218,9977	4,15498972
3	0	93221,4977	4,15487528
3	0	93223,9977	4,15479898
3	0	93226,4977	4,15489435
3	0	93228,9977	4,15455103
3	0	93231,4977	4,15458918
3	0	93233,9977	4,1546464
3	0	93236,4977	4,15458918
3	0	93238,9977	4,154284
3	0	93241,4977	4,154284
3	0	93243,9977	4,15430307
3	0	93246,4977	4,15422678
3	0	93248,9977	4,15436029
3	0	93251,4977	4,154284
3	0	93253,9977	4,15416956
3	0	93256,4977	4,15430307
3	0	93258,9977	4,15411234
3	0	93261,4977	4,15386438
3	0	93263,9977	4,15382624
3	0	93266,4977	4,15380716
3	0	93268,9977	4,15374994
3	0	93271,4976	4,15359735
3	0	93273,9976	4,15340662
3	0	93276,4976	4,15355921
3	0	93278,9976	4,15367365
3	0	93281,4976	4,15350199
3	0	93283,9976	4,15315866
3	0	93286,4976	4,15317774
3	0	93288,9976	4,15315866
3	0	93291,4976	4,1530633
3	0	93293,9976	4,1533494
3	0	93296,4976	4,15308237
3	0	93298,9976	4,15315866
3	0	93301,4976	4,15313959
3	0	93303,9976	4,15291071
3	0	93306,4976	4,15281534
3	0	93308,9976	4,15254831
3	0	93311,4976	4,1527009
3	0	93313,9976	4,15249109
3	0	93316,4976	4,15243387
3	0	93318,9976	4,15237665
3	0	93321,4976	4,15231943
3	0	93323,9976	4,1523385
3	0	93326,4976	4,15235758
3	0	93328,9976	4,15239573
3	0	93331,4976	4,15222406
3	0	93333,9976	4,15239573
3	0	93336,4976	4,15207148
3	0	93338,9976	4,15201426
3	0	93341,4976	4,15199518
3	0	93343,9976	4,15201426
3	0	93346,4976	4,15178537
3	0	93348,9976	4,15209055
3	0	93351,4976	4,15199518
3	0	93353,9976	4,1517663
3	0	93356,4976	4,15182352
3	0	93358,9976	4,15199518
3	0	93361,4976	4,15184259
3	0	93363,9976	4,15178537
3	0	93366,4976	4,15155649
3	0	93368,9976	4,15151834
3	0	93371,4976	4,15128946
3	0	93373,9976	4,15144205
3	0	93376,4976	4,15172815
3	0	93378,9976	4,15144205
3	0	93381,4976	4,15165186
3	0	93381,9026	4,15157557