Folder: thesis/Experimentelles/Ausgewaehlte_Daten/LiS/CV (part 2)

File: LiS_NMR_02_CV_C01.mpt
EC-Lab ASCII FILE
Nb header lines : 77

Cyclic Voltammetry

Run on channel : 1 (SN 6985)
Grouped channel(s) : 1
User :
CE vs. WE compliance from -10 V to 10 V
Electrode connection : standard
Ewe ctrl range : min = 0,00 V, max = 5,00 V
Acquisition started on : 09.17.2015 16:13:32
Saved on :
	File : LiS_NMR_02_CV_C01.mpr
	Directory : C:\Gielisch\NeueZelle\LiS-Test\150917\
	Host : 192.168.0.2
Device : VMP3 (SN 0324)
Address : 192.168.0.1
EC-Lab for windows v10.33 (software)
Internet server v10.33 (firmware)
Command interpretor v10.32 (firmware)
Electrode material :
Initial state :
Electrolyte :
Comments :
Mass of active material : 0,001 mg
 at x = 0,000
Molecular weight of active material (at x = 0) : 0,001 g/mol
Atomic weight of intercalated ion : 0,001 g/mol
Acquisition started at : xo = 0,000
Number of e- transfered per intercalated ion : 1
for DX = 1, DQ = 26,801 mA.h
Battery capacity : 0,000 A.h
Electrode surface area : 0,001 cm²
Characteristic mass : 0,001 g
Ei (V)              0,000
vs.                 Eoc
dE/dt               10,000
dE/dt unit          mV/s
E1 (V)              3,000
vs.                 Ref
Step percent        50
N                   10
E range min (V)     0,000
E range max (V)     5,000
I Range             Auto
Bandwidth           5
E2 (V)              1,200
vs.                 Ref
nc cycles           0
Reverse Scan        1
Ef (V)              0,000
vs.                 Eoc

Modify on : 09.17.2015 16:27
E1 (V)              4,000

Modify on : 09.17.2015 16:34
E1 (V)              3,500

Modify on : 09.17.2015 16:35
E2 (V)              1,400

Modify on : 09.17.2015 16:45
E2 (V)              1,500

Number of loops : 8
Loop 0 from point number 0 to 3600
Loop 1 from point number 3601 to 7199
Loop 2 from point number 7200 to 10799
Loop 3 from point number 10800 to 15998
Loop 4 from point number 15999 to 20197
Loop 5 from point number 20198 to 24196
Loop 6 from point number 24197 to 28195
Loop 7 from point number 28196 to 32194

mode	ox/red	error	control changes	counter inc.	time/s	control/V	Ewe/V	<I>/mA	cycle number	(Q-Qo)/C	P/W
2	1	1	1	0	0,0508	2,82128692	2,8214798	0,00010477699106559158	1	0	2,95626165E-007
2	0	0	0	0	29,0808	2,88844681	2,88906193	-0,005150995292179113	1	6,41233273E-005	1,48815443E-005
2	0	0	0	0	58,3256	2,59599948	2,5967958	-0,012551343633310397	1	-0,000164708777	3,25932779E-005
2	0	0	1	0	87,5302	2,30395269	2,30448031	-0,062118762465952717	1	-0,000980064855	0,000143151468
2	0	0	1	0	116,8150	2,0111053	2,01180434	-1,0730535012704365	1	-0,0117777782	0,0021587736
2	0	0	0	0	146,0196	1,71905828	1,71969831	-2,4625689599800998	1	-0,0681228712	0,00423487555
2	0	0	0	0	175,2244	1,42701125	1,42767286	-3,9655770289677293	1	-0,162151963	0,00566154672
2	1	0	0	1	204,2796	1,26358473	1,26422393	-4,6392074862012154	1	-0,295809627	0,00586499693
2	1	0	1	1	233,4842	1,55563188	1,55627179	-2,7643854775362566	1	-0,403643101	0,0043021352
2	1	0	1	1	262,6890	1,8476789	1,84844458	-1,1553628168724206	1	-0,45955795	0,00213562418
2	1	0	1	1	292,0538	2,14132643	2,14182901	0,068588882167306189	1	-0,474989593	0,000146905659
2	1	0	0	1	321,3384	2,43417358	2,43473244	1,2345814433086843	1	-0,455486953	0,00300587551
2	1	0	0	1	350,5432	2,72622085	2,72686505	2,8553212745874106	1	-0,395066351	0,00778607558
2	0	0	1	0	379,6144	2,9834621	2,98398328	2,5051081978060595	2	0,0551191159	0,00747520104
2	0	0	1	0	408,8192	2,69141555	2,691993	0,92184433810136922	2	0,10108564	0,00248159841
2	0	0	1	0	438,1040	2,3985672	2,3992002	-0,045812631108599123	2	0,114588819	0,000109913672
2	0	0	0	0	467,3886	2,10572052	2,10626197	-1,9326664805412291	2	0,087829344	0,00407070201
2	0	0	0	0	496,5934	1,8136735	1,81421852	-3,0968752343345651	2	0,0068908832	0,00561840832
2	0	0	1	0	525,7980	1,52162647	1,52217066	-2,5459594889371485	2	-0,062937595	0,00387538481
2	0	0	1	0	555,0028	1,22957933	1,2303009	-3,41369880956632	2	-0,149401918	0,00419987692
2	1	0	1	1	584,1180	1,46161664	1,46213484	-2,1445198312953638	2	-0,231704831	0,00313557708
2	1	0	0	1	613,3226	1,75366366	1,75431657	-1,054542405185881	2	-0,27837503	0,00185000116
2	1	0	0	1	642,5674	2,04611111	2,0467608	-0,10881054723911299	2	-0,295191675	0,000222709161
2	1	0	0	1	671,9622	2,34005857	2,34065795	1,4065692177801221	2	-0,277242422	0,00329229748
2	1	0	1	1	701,1668	2,63210535	2,63251877	2,7424651974881158	2	-0,215196371	0,00721959118
2	1	0	0	0	730,3206	2,92325258	2,92398739	3,9032312819251302	3	0,0379785337	0,0114129987
2	0	0	1	0	759,3556	2,78643012	2,78696752	1,7916571150223373	3	0,126889974	0,00499329017
2	0	0	1	0	788,6004	2,49398327	2,49459481	0,37038113156126682	3	0,156934828	0,000923950865
2	0	0	1	0	817,9252	2,20073581	2,20133471	-1,3004115444642536	3	0,145398051	0,00286264112
2	0	0	0	0	847,1298	1,90868878	1,90932238	-1,6977814030316195	3	0,0862644389	0,00324161211
2	0	0	0	0	876,3346	1,61664152	1,61730564	-2,1107704755332771	3	0,0312773548	0,00341376103
2	0	0	1	0	905,5392	1,32459462	1,32524443	-2,6695127216754138	3	-0,039301727	0,00353775686
2	1	0	1	1	934,6544	1,36660135	1,36728954	-2,0599261044904083	3	-0,115123756	0,00281651551
2	1	0	1	1	963,8592	1,65864825	1,65918589	-1,1439103956023819	3	-0,160677999	0,00189795997
2	1	0	0	1	993,1038	1,9510957	1,95181751	-0,22401248198002576	3	-0,18015559	0,000437231472
2	1	0	0	1	1022,4686	2,24474311	2,24535799	0,88439247522641293	3	-0,172683179	0,00198577764
2	1	0	1	1	1051,7033	2,53708935	2,53761411	2,6223728660750733	3	-0,119667903	0,00665457034
2	1	0	0	0	1080,8212	2,82823706	2,82890177	3,5713931526299021	4	0,00131319894	0,0101031205
2	1	0	0	0	1110,0260	3,12028432	3,12087345	3,5618311878707693	4	0,10828945	0,0111160241
2	1	0	1	0	1139,2306	3,4123311	3,41308618	2,1741320951669286	4	0,194690883	0,00742050027
2	1	0	1	0	1168,4354	3,70437837	3,70484042	1,8969560210351587	4	0,241363436	0,0070279194
2	1	0	0	0	1197,6400	3,99642563	3,99692822	3,8217041222033626	4	0,326635629	0,015275077
2	0	0	1	0	1226,7554	3,71237969	3,71293569	1,0788258508675632	4	0,393958658	0,00400561094
2	0	0	0	0	1256,1600	3,41833234	3,41904759	-0,32900800690468787	4	0,401762724	0,00112489401
2	0	0	0	0	1285,4048	3,12588525	3,12634897	-1,3094568473321395	4	0,37054494	0,0040938193
2	0	0	0	0	1314,6096	2,83383799	2,83440375	-0,60555905407225613	4	0,343792379	0,00171639887
2	0	0	1	0	1343,8142	2,54179096	2,54243588	-0,76866030410207987	4	0,323764265	0,0019542696
2	0	0	1	0	1373,0190	2,24974394	2,25049067	-1,2816241782296576	4	0,299894899	0,0028842832
2	0	0	0	0	1402,2236	1,95769656	1,95823336	-1,9916094031046966	4	0,25219059	0,00390003598
2	0	0	0	0	1431,4284	1,66564965	1,66625202	-2,4786331300382189	4	0,185420886	0,00413002726
2	1	0	0	1	1460,4536	1,42451084	1,42511094	-2,6873724123945984	4	0,108634889	0,00382980378
2	1	0	1	1	1489,6582	1,71655786	1,71717215	-1,3220310500926438	4	0,0517636389	0,00227015489
2	1	0	1	1	1518,9030	2,00900507	2,00952315	-0,32173889047569658	4	0,0281565674	0,000646541768
2	1	0	0	1	1548,3077	2,30305195	2,30346847	1,1640600993705376	4	0,0377116241	0,00268137571
2	1	0	0	1	1577,5124	2,59509945	2,59570861	2,6820138198909974	4	0,103302859	0,00696172658
2	1	0	1	0	1606,6346	2,88554621	2,88614798	2,7907970638738816	5	0,0176596008	0,00805465318
2	1	0	0	0	1635,8392	3,17759323	3,1781292	1,3321210321176978	5	0,0779219419	0,00423365273
2	1	0	0	0	1665,0440	3,46964049	3,4701457	0,85860384628177139	5	0,105728574	0,00297948043
[...]
2	0	0	1	0	2103,1277	3,35002112	3,35051942	0,28704886873149162	6	0,106212109	0,000961762795
2	0	0	0	0	2132,3324	3,05797362	3,05846739	0,19839779142357728	6	0,113236658	0,000606793154
2	0	0	0	0	2161,5371	2,76592731	2,76635289	0,10778379335102661	6	0,117623225	0,000298168015
2	0	0	0	0	2190,8619	2,47268009	2,47315526	-0,038991418917214912	6	0,119598188	9,64318315E-005
2	0	0	1	0	2220,1465	2,17983246	2,18039012	-1,6693711810641786	6	0,0974521488	0,00363988033
2	0	0	1	0	2249,3513	1,88778543	1,88838232	-1,817730577179681	6	0,0415645167	0,00343257026
2	0	0	1	0	2278,5561	1,59573817	1,59649467	-2,345225770164415	6	-0,0204854384	0,0037441405
2	1	0	0	1	2307,5911	1,69455409	1,69508708	-1,2571394192399747	6	-0,0744875595	0,00213096081
2	1	0	0	1	2336,8359	1,9870013	1,98750031	-0,34397616503001459	6	-0,09779834	0,000683652761
2	1	0	0	1	2366,2407	2,28104877	2,28172684	1,1311822118306622	6	-0,0889659226	0,00258104876
2	1	0	1	1	2395,4453	2,57309628	2,57371259	3,1600055043344141	6	-0,0223825276	0,00813294575
2	1	0	1	0	2424,6557	2,86434269	2,86491847	1,8659761360397981	7	0,00748208119	0,00534586934
2	1	0	0	0	2453,8603	3,15638971	3,15695667	1,0607335489110117	7	0,050051745	0,00334868976
2	1	0	0	0	2483,0651	3,44843674	3,4490633	0,72438274254953331	7	0,074177824	0,00249844184
2	0	0	0	0	2512,2203	3,26000643	3,26058435	0,2854815395204	7	0,0873786137	0,000930836657
2	0	0	0	0	2541,4251	2,96795964	2,96837616	0,16938002871487434	7	0,0939817205	0,000502783631
2	0	0	1	0	2570,6297	2,67591262	2,67655087	0,094395266500888474	7	0,0976371095	0,000252653728
2	0	0	1	0	2599,9945	2,38226533	2,38280988	-0,33872661732689082	7	0,0972040519	0,000807121105
2	0	0	1	0	2629,2393	2,089818	2,0904901	-1,445719807926153	7	0,0696270242	0,00302226306
2	0	0	0	0	2658,4439	1,79777086	1,79830396	-1,9973538564862957	7	0,0217312146	0,00359184947
2	0	0	0	0	2687,6487	1,50572395	1,50639427	-1,3325499621806394	7	-0,0346418396	0,00200734567
2	1	0	0	1	2716,7239	1,78496885	1,78574014	-0,44044929542751168	7	-0,055826731	0,000786527991
2	1	0	1	1	2745,9285	2,07701612	2,07756495	-0,1055176466772404	7	-0,0645452365	0,000219219772
2	1	0	1	1	2775,3233	2,37096357	2,37153792	1,6737131297036355	7	-0,0543796308	0,003969274
2	1	0	1	1	2804,5281	2,66301036	2,66359901	1,8863357460057344	7	0,0116872396	0,00502444198
2	1	0	0	0	2833,6725	2,95405746	2,95451546	1,2938123706866182	8	0,0180966984	0,00382258859
2	1	0	0	0	2862,8773	3,24610448	3,24689293	0,74661310541408806	8	0,0468626656	0,00242417282
2	0	0	1	0	2891,9623	3,46303916	3,46347189	0,46297164330327866	8	0,0662845746	0,00160348928
2	0	0	0	0	2921,1670	3,17099142	3,17172599	0,25469811741441274	8	0,0758003518	0,000807832635
2	0	0	0	0	2950,3717	2,87894511	2,8795054	0,14640442897669181	8	0,0815916508	0,000421572331
2	0	0	0	0	2979,5765	2,58689809	2,58759522	0,073455267051165786	8	0,0847537071	0,000190072504
2	0	0	1	0	3008,9411	2,2932508	2,29375196	-0,81520998905654144	8	0,0786645263	0,00186988956
2	0	0	1	0	3038,1859	2,00080371	2,00139213	-0,75288379240643021	8	0,0419272743	0,00150681566
2	0	0	1	0	3067,3907	1,70875657	1,70934415	-1,0052466124848109	8	0,0155750038	0,00171831239
2	1	0	0	1	3096,4257	1,58153594	1,58212614	-1,0888444581241536	8	-0,0196429174	0,00172268925
2	1	0	0	1	3125,6705	1,87398314	1,87457967	-0,3601380115788855	8	-0,0396045335	0,000675107411
2	1	0	1	1	3154,9151	2,16643023	2,16716671	-0,01239302318060287	8	-0,0449092276	2,68577478E-005
2	1	0	1	1	3184,2699	2,45997763	2,46044421	1,7540636349607405	8	-0,0206090733	0,00431577582
2	1	0	1	1	3213,4747	2,75202489	2,75274158	1,4194747696596152	8	0,024488261	0,00390744722
2	1	0	1	1	3220,8241	2,82558775	2,82589054	1,3466201722621918	8	0,0346634127	0,00380540127

File: LiS_NMR_08_CV_C01.mpt
EC-Lab ASCII FILE
Nb header lines : 68

Cyclic Voltammetry

Run on channel : 1 (SN 6985)
Grouped channel(s) : 1
User :
CE vs. WE compliance from -10 V to 10 V
Electrode connection : standard
Ewe ctrl range : min = 0,00 V, max = 5,00 V
Acquisition started on : 09.17.2015 16:13:32
Saved on :
	File : LiS_NMR_08_CV_C01.mpr
	Directory : C:\Gielisch\NeueZelle\LiS-Test\150917\
	Host : 192.168.0.2
Device : VMP3 (SN 0324)
Address : 192.168.0.1
EC-Lab for windows v10.33 (software)
Internet server v10.33 (firmware)
Command interpretor v10.32 (firmware)
Electrode material :
Initial state :
Electrolyte :
Comments :
Mass of active material : 0,001 mg
 at x = 0,000
Molecular weight of active material (at x = 0) : 0,001 g/mol
Atomic weight of intercalated ion : 0,001 g/mol
Acquisition started at : xo = 0,000
Number of e- transfered per intercalated ion : 1
for DX = 1, DQ = 26,801 mA.h
Battery capacity : 0,000 A.h
Electrode surface area : 0,001 cm²
Characteristic mass : 0,001 g
Ei (V)              0,000
vs.                 Eoc
dE/dt               10,000
dE/dt unit          mV/s
E1 (V)              3,000
vs.                 Ref
Step percent        50
N                   10
E range min (V)     0,000
E range max (V)     5,000
I Range             Auto
Bandwidth           5
E2 (V)              1,200
vs.                 Ref
nc cycles           0
Reverse Scan        1
Ef (V)              0,000
vs.                 Eoc

Modify on : 09.18.2015 10:29
E1 (V)              3,500
E2 (V)              1,500

Number of loops : 7
Loop 0 from point number 0 to 4000
Loop 1 from point number 4001 to 8000
Loop 2 from point number 8001 to 12000
Loop 3 from point number 12001 to 15999
Loop 4 from point number 16000 to 19999
Loop 5 from point number 20000 to 23999
Loop 6 from point number 24000 to 27999

mode	ox/red	error	control changes	counter inc.	time/s	control/V	Ewe/V	<I>/mA	cycle number	(Q-Qo)/C	P/W
2	1	0	0	0	108500,4911	1,7038064	1,70446479	-0,00067978585138916966	1	0	1,15867101E-006
2	1	0	1	0	108526,8303	1,96719837	1,96794474	0,1233327579167165	1	0,00140752213	0,000242712049
2	1	0	0	0	108553,1344	2,23024058	2,23113942	0,51678391166583814	1	0,00893491134	0,00115301693
2	1	0	1	0	108579,4786	2,49368334	2,49451303	1,181176561586284	1	0,0305570662	0,00294646039
2	1	0	1	0	108605,7830	2,75672555	2,75739646	2,4307653238927786	1	0,0767827407	0,00670258375
2	1	0	0	0	108632,0872	3,01976824	3,02039099	3,5477793989358304	1	0,156935051	0,0107156811
2	1	0	1	0	108658,3914	3,28281069	3,28350592	3,8768308637318822	1	0,256640464	0,0127295973
2	0	0	1	0	108684,5662	3,45543861	3,45616841	2,9090814855363654	1	0,350056827	0,0100542754
2	0	0	0	0	108710,8704	3,19239593	3,19306254	1,754833201567319	1	0,408577889	0,00560329203
2	0	0	1	0	108737,1746	2,92935348	2,92985845	1,1763017205176533	1	0,446845621	0,0034463976
2	0	0	1	0	108763,4790	2,66631103	2,66696167	0,64360177089218598	1	0,470730036	0,00171646127
2	0	0	0	0	108789,8832	2,40226841	2,40310001	0,0029454720433232941	1	0,479983479	7,07826393E-006
2	0	0	1	0	108816,2874	2,13822579	2,13895845	-0,67342776425734938	1	0,469863147	0,00144043402
2	0	0	1	0	108842,5918	1,87518346	1,87593281	-0,88540551949430042	1	0,44948864	0,00166096131
2	0	0	0	0	108868,9360	1,61174083	1,61234105	-0,95233341058095706	1	0,424301237	0,0015354862
2	1	0	0	1	108895,0708	1,64954698	1,65011799	-0,56421160401293389	1	0,402424693	0,000931015704
2	1	0	0	0	108921,3224	1,91148925	1,91222596	-0,16030290596945917	2	-0,00633986667	0,000306535367
2	1	0	0	0	108947,7768	2,17603159	2,17670441	0,15689929331549424	2	-0,00654018018	0,00034152338
2	1	0	1	0	108974,1209	2,43947458	2,44009089	1,0268732470770771	2	0,00773286633	0,00250566402
2	1	0	0	0	109000,4251	2,70251703	2,70320153	2,0515108039533597	2	0,048658818	0,00554564735
2	1	0	1	0	109026,7293	2,96555901	2,96626711	1,9291682822836976	2	0,10132537	0,00572242821
2	1	0	1	0	109053,0337	3,22860217	3,2292974	1,9040013336473098	2	0,152585506	0,00614858652
2	1	0	0	0	109079,3379	3,49164414	3,49242544	1,8808420369470547	2	0,203063428	0,00656870054
2	0	0	0	0	109105,5327	3,24640465	3,2470963	0,98621160440423373	2	0,237414479	0,00320232403
2	0	0	1	0	109131,8369	2,98336244	2,98397303	0,58627222685349875	2	0,257680267	0,00174942054
2	0	0	0	0	109158,1811	2,71991944	2,72072887	0,28685668738628144	2	0,269409865	0,000780459261
2	0	0	0	0	109184,6055	2,45567703	2,4563396	-0,04020382068982281	2	0,272710085	9,87542371E-005
2	0	0	1	0	109210,9497	2,19223452	2,19306421	-0,65487968569828173	2	0,26303035	0,00143619324
2	0	0	0	0	109237,2539	1,92919207	1,9299047	-0,59955931351416678	2	0,246485978	0,00115709228
2	0	0	0	0	109263,5583	1,66614962	1,66678989	-0,84815476779584384	2	0,227283642	0,00141369575
2	1	0	0	1	109289,7331	1,5955385	1,5962261	-0,72088252959979648	2	0,204036146	0,00115069153
2	1	0	0	0	109315,9327	1,85708046	1,85784423	-0,34151381799192659	3	-0,00662057986	0,000634479453
2	1	0	1	0	109342,2769	2,12052298	2,1211102	-0,0066537469769913306	3	-0,0110394945	1,41133305E-005
2	1	0	0	0	109368,6911	2,38466573	2,38552642	0,72803312450371469	3	-0,00471381005	0,00173674221
2	1	0	0	0	109395,0254	2,64800811	2,64871693	1,4767056117179251	3	0,0265960228	0,00391137507
2	1	0	1	0	109421,3296	2,91105056	2,91175628	1,2266633180832365	3	0,0632794425	0,00357174454
2	1	0	0	0	109447,6338	3,17409301	3,17471504	0,65538738385118477	3	0,0875999928	0,00208066823
2	1	0	1	0	109473,9381	3,4371357	3,43781304	0,51115982032111341	3	0,10252957	0,00175727194
2	0	0	0	0	109500,1230	3,30101252	3,3017323	0,089773361698808781	3	0,110031575	0,000296407612
2	0	0	1	0	109526,4672	3,03757071	3,03831911	0,017226967326779251	3	0,111290209	5,23410235E-005
2	0	0	0	0	109552,8514	2,77372837	2,77433085	-0,033089957665651814	3	0,111015543	9,18024889E-005
2	0	0	1	0	109579,1956	2,51028585	2,51110029	-0,13721503472576613	3	0,109357215	0,000344560714
2	0	0	1	0	109605,5000	2,24724364	2,24803901	-0,43984670212699405	3	0,101973169	0,000988792512
2	0	0	0	0	109631,8042	1,98420107	1,98483026	-0,41953937985279309	3	0,0913213491	0,000832714431
2	0	0	1	0	109658,1084	1,72115862	1,72195613	-0,6326643819748256	3	0,0778321847	0,00108942029
2	1	0	1	1	109684,2832	1,54052949	1,5412426	-0,79395633618588544	3	0,057645604	0,00122367928
2	1	0	1	0	109710,5390	1,80287182	1,80348444	-0,37207771523820557	4	-0,00430067955	0,000671036367
2	1	0	1	0	109736,8434	2,06591415	2,06676865	-0,065912224007425357	4	-0,0100323455	0,000136225324
2	1	0	0	0	109763,2976	2,33045697	2,33121562	0,3452306743021385	4	-0,00742411753	0,000804807118
2	1	0	1	0	109789,6418	2,59389925	2,59438848	1,2708740496525106	4	0,0160257909	0,00329714105
2	1	0	0	0	109815,9460	2,85694098	2,85764146	0,78591831931954739	4	0,0462111346	0,00224587275
2	1	0	0	0	109842,2903	3,12038422	3,12100577	0,2767521717275183	4	0,0579530373	0,00086374511
2	1	0	1	0	109868,5945	3,38342667	3,38422775	0,29321724510993286	4	0,0652582571	0,000992313959
2	0	0	0	0	109894,8491	3,35402179	3,35462642	0,029959847512482483	4	0,0707148388	0,000100504098
2	0	0	0	0	109921,2335	3,09017944	3,09078526	-0,02007328208613529	4	0,0704260394	6,2042207E-005
2	0	0	1	0	109947,5377	2,82713699	2,82781315	-0,044010300594554522	4	0,0695922524	0,000124452912
2	0	0	0	0	109973,8419	2,56409454	2,5647471	-0,083468838517243072	4	0,0681021959	0,000214076455
2	0	0	1	0	110000,1861	2,30065203	2,30148506	-0,26664566583241546	4	0,0634585321	0,000613681041
[...]
2	0	0	0	0	110342,2021	2,88114667	2,88185716	-0,041589853342210323	5	0,0625042915	0,000119856013
2	0	0	0	0	110368,5064	2,61810327	2,61875033	-0,062577017850277133	5	0,0611787662	0,000163873585
2	0	0	1	0	110394,8506	2,35466075	2,3554883	-0,19829266470063757	5	0,0578601137	0,000467076054
2	0	0	0	0	110421,1548	2,0916183	2,09227061	-0,34729546291270752	5	0,0502700098	0,000726636092
2	0	0	0	0	110447,4592	1,82857585	1,82928956	-0,49825200541979539	5	0,0395736471	0,000911447161
2	0	0	1	0	110473,7634	1,56553364	1,56625938	-0,78778258428254234	5	0,0228639618	0,00123387191
2	1	0	1	1	110499,9782	1,69655466	1,69728661	-0,48707287586121952	5	0,00556848384	0,000826702279
2	1	0	0	0	110526,1702	1,95769668	1,95837009	-0,16271632618305264	6	-0,00770157343	0,0003186588
2	1	0	1	0	110552,6244	2,22223949	2,22315574	0,13192901099790605	6	-0,00814228319	0,000293298741
2	1	0	0	0	110578,9287	2,48528242	2,48591447	0,97415055981453952	6	0,00421273941	0,00242165499
2	1	0	0	0	110605,2730	2,74872422	2,74942589	1,0011653718021077	6	0,0344227403	0,00275263004
2	1	0	1	0	110631,6172	3,01216722	3,01283908	0,25905921768948925	6	0,048690632	0,000780503731
2	1	0	0	0	110657,9213	3,27520895	3,27597618	0,22835724014374941	6	0,0544990711	0,000748092891
2	0	0	0	0	110684,0561	3,46343875	3,46419644	0,15349902638701174	6	0,0607604906	0,000531750789
2	0	0	1	0	110710,4803	3,19919682	3,19987893	-0,033001578300846048	6	0,0612548105	0,000105601051
2	0	0	0	0	110736,7845	2,93615484	2,93672395	-0,038563921405174726	6	0,0604023375	0,00011325159
2	0	0	1	0	110763,0887	2,67311192	2,67380953	-0,054155457376812819	6	0,059179008	0,000144801379
2	0	0	1	0	110789,4331	2,40966964	2,4105072	-0,15405442286282912	6	0,0567635447	0,000371349306
2	0	0	0	0	110815,7373	2,14662695	2,14741039	-0,33046802930119987	6	0,0501345247	0,000709650456
2	0	0	1	0	110842,0415	1,8835845	1,88424206	-0,45086932823889958	6	0,0404774547	0,000849546923
2	0	0	0	0	110868,3457	1,62054253	1,62113607	-0,67537505938499366	6	0,0253638569	0,00109487493
2	1	0	0	1	110894,5605	1,64154565	1,64227664	-0,53095220477768467	6	0,00720288977	0,000871970376
2	1	0	1	0	110920,7767	1,90358782	1,90438914	-0,21126928632320064	7	-0,00646056142	0,000402338948
2	1	0	1	0	110947,2011	2,16783071	2,16857767	0,076663172320910797	7	-0,00820247456	0,000166250044
2	1	0	0	0	110973,5453	2,43127322	2,43183112	0,76894378110214528	7	7,59784089E-005	0,00186994136
2	1	0	1	0	110999,8895	2,6947155	2,69536018	1,1192070564462178	7	0,0287490804	0,00301666604
2	1	0	1	0	111026,2339	2,95815778	2,95884037	0,29693727985162342	7	0,0464257076	0,000878589984
2	1	0	0	0	111052,5381	3,22120047	3,22194195	0,20643438916239632	7	0,0522417203	0,000665119616
2	1	0	1	0	111078,8422	3,48424292	3,48489618	0,25677528911856634	7	0,0582110621	0,000894835219
2	0	0	1	0	111105,0970	3,25320554	3,25369501	-0,028322319286461229	7	0,0598955452	9,2152186E-005
2	0	0	0	0	111131,4012	2,99016356	2,99075818	-0,035877476230746438	7	0,0590260364	0,000107300853
2	0	0	1	0	111157,7054	2,72712088	2,72782636	-0,050305072502750458	7	0,0578753799	0,000137223498
2	0	0	0	0	111184,0496	2,4636786	2,46454191	-0,11535529254211331	7	0,0560102053	0,000284297945
2	0	0	0	0	111210,3540	2,20063591	2,20128012	-0,29298818428759258	7	0,0506352261	0,00064494909
2	0	0	1	0	111236,6582	1,93759322	1,93830299	-0,41681777403035091	7	0,0417841636	0,000807919132
2	0	0	0	0	111262,9624	1,67455113	1,67538416	-0,68148245248530163	7	0,0281310249	0,0011417449
2	1	0	0	1	111289,1772	1,58753705	1,58837569	-0,63020823350934669	7	0,00937303156	0,00100100739
2	1	0	0	1	111301,1618	1,707407	1,70847464	-0,42406779069166899	7	0,00322724134	0,000724509067