Folder: thesis/Experimentelles/Ausgewaehlte_Daten/LiS/CV

Note: README.md
# thesis

Zusammenfassung
---------------
Es konnten die Festkörperelektrolytkeramiken LATP, LAGP, LTO und LLTO hergestellt,
mit XRD und MAS-NMR charakterisiert und zu Elektrodensuspensionen weiterverarbeitet
werden. Aus den Daten der MAS-NMR konnten dabei gegenüber der XRD keine Mehrinfor-
mationen gewonnen werden. Die mit den Suspensionen gegossenen und gestanzten Elektro-
denproben wurden mittels REM und EDX untersucht und als Kathode in Testzellen verbaut.
Mit diesen wurden Ladekennlinien erstellt und eine zyklischer Voltametrie durchgeführt. Aus
den Ladekennlinien konnten die Kapazitäten und der Grad der Lithiuminsertation in die
Materialen bestimmt werden. Die zyklische Voltametrie lieferte nicht-reaktive Spannungsbe-
reiche der Materialien.

Für ein noch besseres Verständnis der Lithiumbewegung und -insertation wurde eine in-situ
NMR-Testzelle konzipiert, konstruiert, gebaut und getestet. Für den Test kam dabei eine
Lithium-Schwefel-Zelle zum Einsatz, für welche ein Di?usionskoe?zient sowie ein Spektrum
vor und nach einer 90 minütigen Ladezeit aufgenommen worden ist.

Abstract
--------
The all solid state electrolyte ceramics LATP, LAGP, LTO, and LLTO were successfully
synthesized and characterized by using XRD. MAS-NMR spectroscopy were not able to ge-
nerate additional information. All powders were processed to electrode slurries, casted on
aluminum foils and punched to electrode samples. Those samples were studied by SEM and
EDX and then build into battery test cells. The cells were analyzed by measuring the charge
curves as well as cyclic voltammetry. With the charge curves capacities and the amount of
lithium insertion were calculated. The cyclic voltammetry was able to detect non-reactive
voltage regions.

To be able to better understand lithium movement and insertion a novel in-situ NMR sample
cell was designed, constructed, built and tested. Therefore, a lithium-sulfur-cell was built into
the in-situ sample cell. With this setting a diffusion coeffcient as well as a NMR spectrum
before and after 90 minutes of charging were measured.

File: LiS_Klein_Vollprogramm_02_CV_C01.mpt
EC-Lab ASCII FILE
Nb header lines : 77

Cyclic Voltammetry

Run on channel : 1 (SN 6985)
Grouped channel(s) : 1
User :
CE vs. WE compliance from -10 V to 10 V
Electrode connection : standard
Ewe ctrl range : min = 0,00 V, max = 5,00 V
Acquisition started on : 08/28/2015 15:57:10
Saved on :
	File : LiS_Klein_Vollprogramm_02_CV_C01.mpr
	Directory : C:\Gielisch\NeueZelle\LiS-Test\150828\
	Host : 192.168.0.2
Device : VMP3 (SN 0324)
Address : 192.168.0.1
EC-Lab for windows v10.33 (software)
Internet server v10.33 (firmware)
Command interpretor v10.32 (firmware)
Electrode material :
Initial state :
Electrolyte :
Comments :
Mass of active material : 0,001 mg
 at x = 0,000
Molecular weight of active material (at x = 0) : 0,001 g/mol
Atomic weight of intercalated ion : 0,001 g/mol
Acquisition started at : xo = 0,000
Number of e- transfered per intercalated ion : 1
for DX = 1, DQ = 26,801 mA.h
Battery capacity : 0,000 A.h
Electrode surface area : 0,001 cm²
Characteristic mass : 0,001 g
Ei (V)              0,000
vs.                 Eoc
dE/dt               10,000
dE/dt unit          mV/s
E1 (V)              2,800
vs.                 Ref
Step percent        50
N                   10
E range min (V)     0,000
E range max (V)     5,000
I Range             Auto
Bandwidth           5
E2 (V)              1,500
vs.                 Ref
nc cycles           0
Reverse Scan        1
Ef (V)              0,000
vs.                 Eoc

Modify on : 08/28/2015 15:59
E1 (V)              3,000
E2 (V)              1,000

Modify on : 08/28/2015 16:01
E1 (V)              3,500

Modify on : 08/28/2015 16:07
E2 (V)              0,800

Modify on : 08/28/2015 16:35
E1 (V)              3,800

Number of loops : 7
Loop 0 from point number 0 to 2602
Loop 1 from point number 2603 to 7602
Loop 2 from point number 7603 to 13002
Loop 3 from point number 13003 to 18402
Loop 4 from point number 18403 to 23802
Loop 5 from point number 23803 to 29801
Loop 6 from point number 29802 to 35799

mode	ox/red	error	control changes	counter inc.	time/s	control/V	Ewe/V	<I>/mA	cycle number	(Q-Qo)/C	P/W
2	1	0	1	0	0,0508	2,73943591	2,74002028	-0,0013689417392015458	1	0	3,75092804E-006
2	0	0	0	0	32,2108	2,53905535	2,53911018	-0,015342863354211062	1	-0,0001848338	3,89572197E-005
2	0	0	0	0	64,5556	2,21560717	2,2157011	-0,3452388105431097	1	-0,00321619399	0,000764945988
2	0	0	0	0	96,8904	1,89225924	1,89233637	-3,2539981912683373	1	-0,053213425	0,00615765899
2	0	0	0	0	129,1952	1,56921136	1,5692302	-6,0970699869924378	1	-0,209606126	0,00956770591
2	1	0	0	1	161,2706	1,75153852	1,75168991	-3,3008508731921376	1	-0,373082489	0,00578206731
2	1	0	0	1	193,5754	2,07458639	2,07475162	-0,56451458049317414	1	-0,432227999	0,00117122754
2	1	0	0	1	226,0302	2,3991344	2,39929676	1,117921570798865	1	-0,420802683	0,00268222555
2	1	0	0	1	258,3350	2,72218251	2,72224712	2,9371190363610362	1	-0,358391076	0,00799556356
2	1	0	0	0	290,6296	3,04413009	3,04455423	2,408947990448393	2	0,0893338844	0,00733417273
2	1	0	0	0	322,9344	3,36717772	3,3677361	0,76335810883729408	2	0,133708596	0,00257078861
2	0	0	1	0	355,0098	3,31206989	3,31247616	0,36284316086244806	2	0,151025206	0,00120190927
2	0	0	1	0	387,3146	2,98902202	2,98938823	0,22491449866167955	2	0,160241678	0,000672356749
2	0	0	1	0	419,6194	2,66597414	2,66635776	0,14192806022172677	2	0,166184962	0,000378430996
2	0	0	1	0	452,0842	2,34132624	2,3418169	-0,42194779141357677	2	0,166509733	0,000988124521
2	0	0	1	0	484,4290	2,01787806	2,01825619	-2,7583238932269555	2	0,115865402	0,00556700444
2	0	0	1	0	516,7338	1,69482994	1,6952213	-4,1018215726923162	2	0,00184298505	0,00695349509
2	0	0	1	0	549,0386	1,37178206	1,37220883	-5,1664848404902035	2	-0,148806453	0,00708949612
2	0	0	1	0	581,3434	1,04873419	1,04913831	-5,1466513656907648	2	-0,320848465	0,00539954891
2	1	0	0	1	613,4788	1,27256739	1,27301061	-2,2001551858804758	2	-0,433987856	0,00280082086
2	1	0	0	1	645,7836	1,59561539	1,59621918	-1,0658546546819032	2	-0,484747618	0,00170133763
2	1	0	0	1	678,1284	1,91906333	1,91950357	-0,074971006829636646	2	-0,503604472	0,00014390712
2	1	0	0	1	710,5932	2,24371171	2,24428034	0,98903092079692096	2	-0,490286589	0,00221966254
2	1	0	0	1	742,9280	2,56705952	2,56757379	2,6169240113209824	2	-0,435350507	0,00671914546
2	1	0	1	0	775,2368	2,88980746	2,89023423	4,4177464114294906	3	0,0598957986	0,0127683217
2	1	0	1	0	807,5416	3,21285534	3,21332717	5,1340455777115219	3	0,218657374	0,016497368
2	0	0	1	0	839,6066	3,46649289	3,46684504	3,4717048848116858	3	0,36520353	0,0120358625
2	0	0	1	0	871,9114	3,14344501	3,14394832	0,69255037357409856	3	0,423910916	0,00217734254
2	0	0	1	0	904,2563	2,81999612	2,82058716	0,33368582333000154	3	0,438888282	0,000941189937
2	0	0	1	0	936,5610	2,49694943	2,4974916	0,091037975553086899	3	0,446421981	0,000227366574
2	0	0	0	0	969,0560	2,17200065	2,17240691	-1,8443268184308685	3	0,423491836	0,00400662841
2	0	0	0	0	1001,3608	1,84895301	1,84943879	-3,5103221734364851	3	0,328595132	0,0064921258
2	0	0	0	0	1033,6656	1,52590489	1,52632833	-3,967547256637488	3	0,210217431	0,00605577976
2	0	0	0	0	1065,9704	1,20285714	1,2032088	-4,2383927791206765	3	0,0731432959	0,00509967143
2	0	0	0	0	1098,2752	0,879809201	0,880267382	-3,4293543437012774	3	-0,0532407649	0,00301874871
2	1	0	0	1	1130,4104	1,04163313	1,04208541	-1,1773988833581902	3	-0,123370215	0,0012269502
2	1	0	0	1	1162,7152	1,36468101	1,3650893	-0,65075035531211789	3	-0,151737049	0,000888332317
2	1	0	0	1	1195,0600	1,68812907	1,68873441	-0,22795333799526586	3	-0,166456133	0,00038495264
2	1	0	1	1	1227,5250	2,01277733	2,01329374	0,50520884205551117	3	-0,162087232	0,00101713382
2	1	0	1	1	1259,8598	2,33612514	2,33657765	1,1943995727709051	3	-0,136506915	0,00279080728
2	1	0	1	1	1292,1646	2,65917325	2,65966153	3,1080893101515558	3	-0,0723545775	0,00826646574
2	1	0	0	0	1324,4318	2,98172069	2,98235321	4,7023473188833018	4	0,105566636	0,0140240602
2	1	0	0	0	1356,7366	3,30476856	3,30522299	4,681838642667856	4	0,259305209	0,0154745206
2	0	0	0	0	1388,8116	3,37447929	3,37498951	2,9018571793481203	4	0,390480518	0,0097937379
2	0	0	0	0	1421,1164	3,05143142	3,05186987	0,93875647239662822	4	0,448365599	0,00286496268
2	0	0	0	0	1453,4612	2,72798324	2,72841644	0,32191908683765843	4	0,466145694	0,000878329331
2	0	0	0	0	1485,9261	2,40333438	2,40378571	-0,24173834541526861	4	0,470471084	0,000581087195
2	0	0	0	0	1518,2709	2,07988715	2,08051515	-2,6587183102721462	4	0,424342752	0,00553150382
2	0	0	0	0	1550,5757	1,75683987	1,75736487	-3,4471859022065133	4	0,312701315	0,00605796324
2	0	0	0	0	1582,8805	1,43379164	1,4343257	-4,0022548025427936	4	0,196021408	0,00574053684
2	0	0	1	0	1615,1854	1,1107434	1,11111224	-3,7754341032770003	4	0,0685089082	0,00419493113
2	1	0	1	1	1647,3106	0,81059885	0,81110698	-2,8661313451550682	4	-0,0438723527	0,00232473924
2	1	0	1	1	1679,6154	1,13364685	1,13413751	-0,81843981491746829	4	-0,0897353962	0,000928223308
2	1	0	1	1	1711,9602	1,45709479	1,45756888	-0,37005947071506995	4	-0,108287744	0,000539387169
2	1	0	1	1	1744,3850	1,78134274	1,78186452	0,069275379499972429	4	-0,114089668	0,000123439342
2	1	0	1	1	1776,7298	2,10479093	2,10537601	0,65988110530155546	4	-0,101303756	0,00138929789
2	1	0	1	1	1809,0746	2,42823911	2,42874932	1,4919569517175366	4	-0,0693839863	0,00362358941
2	1	0	0	0	1841,3200	2,74998689	2,75054574	3,9851307968298598	5	0,00299637415	0,0109612849
[...]
2	1	0	0	1	2325,8929	2,19580436	2,19633651	0,81835492479580723	5	-0,097626552	0,00179738284
2	1	0	0	1	2358,2277	2,51915264	2,51951838	1,9208885309872858	5	-0,0573654808	0,00483971415
2	1	0	1	0	2390,5151	2,84160042	2,84187174	4,7291088291892314	6	0,042118039	0,0134395212
2	1	0	1	0	2422,8199	3,16464806	3,16520476	5,2547014510189882	6	0,218094036	0,0166322067
2	1	0	1	0	2455,1247	3,48769593	3,48828435	3,7492654936181254	6	0,363200039	0,0130785042
2	0	0	1	0	2487,3099	3,7904408	3,79078007	1,2600043944462555	6	0,447119623	0,00477639958
2	0	0	1	0	2519,6547	3,46699262	3,46738434	0,19493358454632493	6	0,46441564	0,000675909687
2	0	0	1	0	2551,9595	3,14394474	3,14421558	0,22615362179500086	6	0,471037418	0,000711075729
2	0	0	1	0	2584,2643	2,8208971	2,82144809	0,15696630123312906	6	0,47724095	0,00044287226
2	0	0	0	0	2616,6693	2,49684834	2,49724627	-0,010426599341977982	6	0,480284959	2,60377856E-005
2	0	0	0	0	2649,0641	2,17290092	2,17341375	-1,9663750819034006	6	0,453962743	0,00427374663
2	0	0	0	0	2681,3689	1,84985304	1,85033429	-3,3389995335428838	6	0,359931707	0,00617826544
2	0	0	0	0	2713,6737	1,52680516	1,5272727	-3,3666171740602541	6	0,262644023	0,00514174253
2	0	0	0	0	2745,9785	1,20375729	1,20430923	-3,8332495452077338	6	0,140871555	0,00461641792
2	0	0	0	0	2778,2833	0,88070941	0,881127298	-3,7814832351825914	6	0,0160989165	0,0033319681
2	1	0	0	1	2810,4085	1,04063308	1,04099393	-1,4227326121871133	6	-0,066817008	0,00148105598
2	1	0	0	1	2842,7133	1,36368096	1,36403322	-0,70377023428402291	6	-0,0998633802	0,000959965982
2	1	0	0	1	2875,0581	1,6871289	1,68760276	-0,094787577434477965	6	-0,113138728	0,000159963776
2	1	0	0	1	2907,5229	2,01177692	2,01233053	0,75044354078213965	6	-0,102816343	0,00151014049
2	1	0	0	1	2939,8577	2,33512473	2,33556557	1,3230525290023026	6	-0,0698101893	0,00309007592
2	1	0	0	1	2972,1626	2,65817356	2,65855646	3,2099036364298285	6	-0,00222905236	0,00853370968
2	1	0	1	0	3004,4141	2,98072076	2,98103428	6,1268219500780109	7	0,124309316	0,0182642657
2	1	0	1	0	3036,7189	3,30376887	3,30418015	4,4693674196799546	7	0,300057113	0,0147675946
2	1	0	1	0	3069,0237	3,62681651	3,62721944	2,5047537538188464	7	0,418181151	0,00908529107
2	0	0	1	0	3101,2389	3,65102029	3,65148401	0,48737193575060013	7	0,458289772	0,00177963078
2	0	0	1	0	3133,5437	3,32797217	3,32848859	0,051322398948724704	7	0,463707864	0,000170826024
2	0	0	1	0	3165,9285	3,00412416	3,00454974	0,15681232967310522	7	0,467436373	0,000471150444
2	0	0	1	0	3198,2333	2,68107629	2,68137217	0,087632894300407245	7	0,471570402	0,000234976396
2	0	0	1	0	3230,6981	2,35642815	2,35688472	-0,58157203719019354	7	0,469303131	0,00137069821
2	0	0	1	0	3263,0429	2,0329802	2,03343105	-2,9559274616616736	7	0,409891486	0,00601067487
2	0	0	1	0	3295,3477	1,70993209	1,71037853	-2,5951542548007466	7	0,310521185	0,00443869596
2	0	0	1	0	3327,6525	1,38688445	1,38721454	-3,8042107533525638	7	0,210163951	0,00527725648
2	0	0	1	0	3359,9573	1,06383634	1,0641706	-4,1092695201988435	7	0,0811556652	0,00437296368
2	1	0	1	1	3392,0925	0,857605875	0,857977271	-3,0395687868197638	7	-0,0475543588	0,00260788086
2	1	0	1	1	3424,3974	1,18065464	1,18114269	-1,2116231030252144	7	-0,107665718	0,00143109972
2	1	0	1	1	3456,7022	1,50370169	1,5041306	-0,5371166401772505	7	-0,13562268	0,000807893579
2	1	0	0	1	3489,2071	1,82875001	1,82916713	0,26953568582043584	7	-0,140755564	0,000493025815
2	1	0	0	1	3521,5419	2,15209794	2,15232658	1,1452625967838178	7	-0,115906686	0,00246497919
2	1	0	0	1	3553,8467	2,47514582	2,47543716	1,9521487965076093	7	-0,0689865276	0,0048324219
2	1	0	1	1	3580,6543	2,74323654	2,74367213	4,1392330842859603	7	0,0100695025	0,0113566983

File: LiS_Klein_Vollprogramm_08_CV_C01.mpt
EC-Lab ASCII FILE
Nb header lines : 77

Cyclic Voltammetry

Run on channel : 1 (SN 6985)
Grouped channel(s) : 1
User :
CE vs. WE compliance from -10 V to 10 V
Electrode connection : standard
Ewe ctrl range : min = 0,00 V, max = 5,00 V
Acquisition started on : 08/28/2015 15:57:10
Saved on :
	File : LiS_Klein_Vollprogramm_08_CV_C01.mpr
	Directory : C:\Gielisch\NeueZelle\LiS-Test\150828\
	Host : 192.168.0.2
Device : VMP3 (SN 0324)
Address : 192.168.0.1
EC-Lab for windows v10.33 (software)
Internet server v10.33 (firmware)
Command interpretor v10.32 (firmware)
Electrode material :
Initial state :
Electrolyte :
Comments :
Mass of active material : 0,001 mg
 at x = 0,000
Molecular weight of active material (at x = 0) : 0,001 g/mol
Atomic weight of intercalated ion : 0,001 g/mol
Acquisition started at : xo = 0,000
Number of e- transfered per intercalated ion : 1
for DX = 1, DQ = 26,801 mA.h
Battery capacity : 0,000 A.h
Electrode surface area : 0,001 cm²
Characteristic mass : 0,001 g
Ei (V)              0,000
vs.                 Eoc
dE/dt               10,000
dE/dt unit          mV/s
E1 (V)              2,800
vs.                 Ref
Step percent        50
N                   10
E range min (V)     0,000
E range max (V)     5,000
I Range             Auto
Bandwidth           5
E2 (V)              1,500
vs.                 Ref
nc cycles           0
Reverse Scan        1
Ef (V)              0,000
vs.                 Eoc

Modify on : 08/28/2015 16:00
E1 (V)              3,000
E2 (V)              1,000

Modify on : 08/28/2015 16:01
E1 (V)              3,500

Modify on : 08/28/2015 16:34
E2 (V)              0,800

Modify on : 08/28/2015 16:35
E1 (V)              3,800

Number of loops : 7
Loop 0 from point number 0 to 6000
Loop 1 from point number 6001 to 12000
Loop 2 from point number 12001 to 18000
Loop 3 from point number 18001 to 24000
Loop 4 from point number 24001 to 30001
Loop 5 from point number 30002 to 36002
Loop 6 from point number 36003 to 42003

mode	ox/red	error	control changes	counter inc.	time/s	control/V	Ewe/V	<I>/mA	cycle number	(Q-Qo)/C	P/W
2	1	0	0	0	499162,8954	1,71838415	1,71929204	1,6739178363422979E-006	1	0	2,87795365E-009
2	1	0	1	0	499202,5262	2,11469245	2,11518478	0,12681059151266538	1	0,00201814133	0,000268227828
2	1	0	0	0	499242,1320	2,51075101	2,5112915	0,53517361446148646	1	0,012958697	0,00134397694
2	1	0	0	0	499281,7780	2,90721035	2,90789771	1,5711181627379744	1	0,0546582155	0,00456865085
2	1	0	1	0	499321,3837	3,30326891	3,30396032	2,0570657658908259	1	0,131338984	0,00679646386
2	1	0	1	0	499360,9897	3,69932747	3,70011616	1,7192286526163674	1	0,206410274	0,00636134576
2	0	0	0	0	499400,4159	3,50639892	3,50703049	0,89441099542155917	1	0,258068055	0,00313672656
2	0	0	0	0	499440,0618	3,10994005	3,11038017	0,44359501230497146	1	0,283545166	0,00137974916
2	0	0	1	0	499479,6676	2,71388173	2,71452713	0,18270414362281562	1	0,295643419	0,000495955348
2	0	0	1	0	499519,3936	2,3166225	2,31720805	-0,072955026929437722	1	0,297822863	0,000169051971
2	0	0	0	0	499559,0393	1,92016363	1,92079365	-0,5707604918215017	1	0,286102444	0,00109631312
2	0	0	0	0	499598,6453	1,52410483	1,52468646	-0,47056807508624845	1	0,263679266	0,000717468793
2	0	0	1	0	499638,2511	1,12804604	1,12841475	-0,42333717858072275	1	0,247114867	0,000477699912
2	1	0	1	1	499677,7075	0,866607428	0,867072999	-0,43487524958672166	1	0,229284555	0,000377068587
2	1	0	1	1	499717,3134	1,26266599	1,26333594	-0,2209481244079017	1	0,216427073	0,000279131695
2	1	0	0	1	499756,9592	1,65912485	1,65952313	-0,02301376254116655	1	0,211821049	3,81918726E-005
2	1	0	1	0	499796,6034	2,05498338	2,05576372	0,11877973687731158	2	0,00169932761	0,000244183087
2	1	0	0	0	499836,2091	2,45104265	2,45164347	0,37329632968263392	2	0,0110917091	0,000915189506
2	1	0	1	0	499875,8149	2,84710097	2,84791994	0,86926936758337754	2	0,0335131213	0,00247560954
2	1	0	1	0	499915,4609	3,24356008	3,24418306	1,2936452708586507	2	0,0818781927	0,00419682218
2	1	0	0	0	499955,0667	3,63961887	3,6402452	0,9370374239429431	2	0,12645103	0,003411046
2	0	0	0	0	499994,6030	3,56500769	3,56585002	0,39444636553525747	2	0,154259652	0,00140653655
2	0	0	0	0	500034,2090	3,16894865	3,16959143	0,14665553146214672	2	0,164133832	0,000464838115
2	0	0	1	0	500073,8548	2,77249002	2,77300787	0,02064462169073497	2	0,167294398	5,72477002E-005
2	0	0	1	0	500113,5807	2,37523127	2,37583613	-0,10620592953637464	2	0,165854156	0,000252327882
2	0	0	0	0	500153,1865	1,97917247	1,97969317	-0,42454635896891776	2	0,156022698	0,000840471534
2	0	0	1	0	500192,7924	1,58311355	1,58379507	-0,44741008454998707	2	0,137277961	0,000708605861
2	0	0	1	0	500232,3982	1,18705487	1,18760848	-0,4907837343160679	2	0,119303435	0,00058285892
2	1	0	1	1	500271,8546	0,807598591	0,808030725	-0,52268868553693146	2	0,0988554135	0,00042234853
2	1	0	0	1	500311,4604	1,20365739	1,20410204	-0,29927001231246918	2	0,0829840973	0,000360351638
2	1	0	0	1	500351,0664	1,59971595	1,6000396	-0,10495927876413374	2	0,0749114305	0,000167938997
2	1	0	0	0	500390,6585	1,9947747	1,99544716	0,048351855702799987	3	0,00012808443	9,64835708E-005
2	1	0	0	0	500430,2945	2,3911345	2,39174247	0,23346767832469517	3	0,00510841561	0,000558394589
2	1	0	1	0	500469,9003	2,78719234	2,78790188	0,62947778955652826	3	0,0212732535	0,00175492233
2	1	0	0	0	500509,5460	3,18365073	3,18427181	1,1314875008883422	3	0,0583449267	0,00360296364
2	1	0	0	0	500549,1520	3,57970977	3,58030295	0,80999192140170355	3	0,0978216007	0,00290001649
2	0	0	0	0	500588,6784	3,62501621	3,62563181	0,3239002769329984	3	0,121822216	0,00117434317
2	0	0	1	0	500628,2842	3,22895765	3,22954726	0,085397241809576973	3	0,128927156	0,000275794417
2	0	0	1	0	500668,0101	2,83169866	2,83236194	-0,021200185266530058	3	0,130065739	6,00465974E-005
2	0	0	0	0	500707,6459	2,43533993	2,43581367	-0,10378962320585706	3	0,127748609	0,000252812169
2	0	0	0	0	500747,2519	2,03928137	2,03996086	-0,2740434028760097	3	0,120264024	0,000559037842
2	0	0	1	0	500786,8576	1,64322257	1,64390719	-0,37661375881481926	3	0,107049949	0,000619118044
2	0	0	0	0	500826,4635	1,24716318	1,24783504	-0,43651959430423328	3	0,0916105583	0,000544704439
2	0	0	0	0	500866,0694	0,851104975	0,851595104	-0,52894280471458189	3	0,0726991668	0,000450445106
2	1	0	0	1	500905,5357	1,14364839	1,14428461	-0,33160715715752474	3	0,0559300482	0,000379452977
2	1	0	1	1	500945,1415	1,53970718	1,54022229	-0,16689390447680941	3	0,0460913815	0,000257053704
2	1	0	1	0	500984,6698	1,93516612	1,93564785	-0,0062374315430203942	4	-0,00101374893	1,20734712E-005
2	1	0	1	0	501024,3857	2,33232474	2,33281946	0,17963956184340214	4	0,00195305003	0,000419066666
2	1	0	0	0	501063,9915	2,72838402	2,72910047	0,4796174599131984	4	0,0146966549	0,00130892429
2	1	0	0	0	501103,6274	3,12474251	3,12537217	1,008796848218779	4	0,0440547131	0,00315286568
2	1	0	1	0	501143,2332	3,52080107	3,5215416	0,62788964021536448	4	0,0790870637	0,00221113954
2	0	0	0	0	501182,7494	3,6840241	3,68476295	0,32000661753250982	4	0,0989480987	0,00117914856
2	0	0	0	0	501222,3553	3,28796673	3,28849578	0,06965719401422743	4	0,105547681	0,000229067387
2	0	0	1	0	501262,0811	2,89070773	2,89152455	-0,026880103128927078	4	0,106265642	7,77244786E-005
2	0	0	1	0	501301,7271	2,49424911	2,49474478	-0,10604185800723664	4	0,10346242	0,000264547358
2	0	0	0	0	501341,3328	2,09819007	2,09873986	-0,20252405769295613	4	0,0974909067	0,00042504532
[...]
2	0	0	0	0	501935,3242	2,15859914	2,15919471	-0,16785020915860227	5	0,0832675174	0,00036242127
2	0	0	1	0	501974,9299	1,76254022	1,76318538	-0,2395679070096881	5	0,0752475038	0,000422402634
2	0	0	1	0	502014,5359	1,36648142	1,36705637	-0,32590001714587846	5	0,0643418282	0,000445523707
2	0	0	0	0	502054,1417	0,970422745	0,970846951	-0,44179501888100538	5	0,0495573618	0,000428915344
2	1	0	0	1	502093,6381	1,02463078	1,02509534	-0,33721738388002144	5	0,0330681689	0,00034567996
2	1	0	1	1	502133,2438	1,42068946	1,42117107	-0,19676580493924333	5	0,0225359406	0,000279637869
2	1	0	0	0	502172,7564	1,81534803	1,81592798	-0,050636349564971763	6	-0,000640834973	9,19519662E-005
2	1	0	0	0	502212,4424	2,21220684	2,21293974	0,091430350284401715	6	9,62790073E-005	0,000202329858
2	1	0	1	0	502252,0781	2,60856581	2,60911345	0,30447642984627078	6	0,00775895314	0,000794413558
2	1	0	1	0	502291,6841	3,00462461	3,00519371	0,67933094549786266	6	0,0261836294	0,00204152102
2	1	0	0	0	502331,2899	3,40068316	3,40136766	0,47575641195807571	6	0,0547494404	0,00161822245
2	1	0	0	0	502370,8959	3,79674196	3,79747462	0,42878940853255674	6	0,0721320361	0,00162831694
2	0	0	1	0	502410,3820	3,40838432	3,40903926	0,086762093386992474	6	0,0804011151	0,00029577539
2	0	0	1	0	502450,1080	3,01112533	3,01177859	-0,010242597809000859	6	0,0816627219	3,08484377E-005
2	0	0	0	0	502489,7538	2,61466694	2,61519957	-0,10204564198782717	6	0,0796963647	0,000266869727
2	0	0	1	0	502529,3596	2,21860743	2,21920729	-0,14348276370316704	6	0,0744767934	0,000318417995
2	0	0	1	0	502568,9655	1,8225491	1,82328391	-0,19580865796242186	6	0,0677324161	0,000357014767
2	0	0	0	0	502608,5713	1,42649043	1,42700303	-0,29125692881643238	6	0,0582825951	0,000415624527
2	0	0	0	0	502648,1772	1,03043151	1,03095841	-0,38213374234599942	6	0,044950068	0,000393964001
2	1	0	0	1	502687,6736	0,964621961	0,965077281	-0,3455970641570567	6	0,0290461238	0,000333527889
2	1	0	0	1	502727,2796	1,36068058	1,36116636	-0,20387093474467389	6	0,018313596	0,000277502259
2	1	0	0	0	502766,7482	1,75523913	1,75582564	-0,068828063585831821	7	-0,000244492228	0,000120850076
2	1	0	1	0	502806,4339	2,15209746	2,15277863	0,063179768199691366	7	-0,000318347884	0,000136012051
2	1	0	1	0	502846,0699	2,54845691	2,54903293	0,24690080551361149	7	0,00563591765	0,000629358285
2	1	0	0	0	502885,6757	2,94451571	2,94520688	0,52593135026593171	7	0,0201049373	0,00154897664
2	1	0	0	0	502925,2816	3,3405745	3,34129596	0,53842246753198528	7	0,0460545346	0,00179902883
2	1	0	1	0	502964,8874	3,7366333	3,73730087	0,41438800917456045	7	0,0630740747	0,0015486927
2	0	0	1	0	503004,3838	3,46839333	3,46907973	0,10421357717778613	7	0,0728344619	0,000361525221
2	0	0	0	0	503044,0696	3,0715344	3,0720861	0,00052662402992642989	7	0,0746218488	1,61783441E-006
2	0	0	1	0	503083,7154	2,67507625	2,67544103	-0,075031439133554483	7	0,0732679293	0,000200742186
2	0	0	1	0	503123,3613	2,27861691	2,27913713	-0,13039148140147128	7	0,068600066	0,000297180057
2	0	0	0	0	503162,9672	1,88255763	1,88308239	-0,17411134293171405	7	0,0627311468	0,000327866001
2	0	0	0	0	503202,5730	1,48649931	1,48706555	-0,24092193475614554	7	0,0544792637	0,000358266698
2	0	0	1	0	503242,1788	1,09044051	1,09098077	-0,34058624585331834	7	0,0429111421	0,000371573056
2	1	0	0	1	503281,6754	0,904612958	0,905121684	-0,34157303375778714	7	0,0282914918	0,00030916516
2	1	0	1	1	503321,2811	1,3006717	1,30105042	-0,21129265706986566	7	0,0174686406	0,000274902413
2	1	0	1	1	503360,8871	1,69673038	1,6972909	-0,085107802844572147	7	0,0115578249	0,000144452701
2	1	0	0	1	503363,4511	1,72238481	1,72282076	-0,076023372218889446	7	0,0113512892	0,000130974644