Folder: thesis/Experimentelles/Ausgewaehlte_Daten/LiS/PEIS

Note: Experimentelles/Ausgewaehlte_Daten/LiS/PEIS/LiS_Klein_Vollprogramm_04_PEIS_C01.txt
1000024,25	40,6286774	13,0519457
681286,5	34,2625504	2,7085135
464160,125	33,8465614	0,227010965
316223,094	33,8730507	-1,23986244
215441,859	34,1797791	-2,4348371
146777,328	34,7570419	-3,69107318
100024,406	35,6170692	-5,14294052
68127,4297	36,4471474	-6,82941055
46411,125	37,8827667	-8,95757008
31628,4121	39,9964104	-11,4419756
21545,4082	43,0723839	-14,2337751
14672,8496	47,4512787	-17,0420113
10015,2705	53,1379623	-19,2202702
6856,00244	59,6359138	-19,892437
4642,42725	66,1507645	-18,8382568
3160,05566	71,5123062	-16,5316296
2152,93286	75,4484024	-13,7748947
1468,58972	78,2124405	-11,1673737
999,040405	80,100975	-9,06942463
681,089661	81,4956207	-7,47886992
464,553894	82,5743713	-6,40512276
316,315765	83,5104065	-5,73220015
215,344498	84,4258347	-5,31118631
146,737289	85,3180237	-5,21391678
99,9040375	86,2126007	-5,28867483
68,1888962	87,2314606	-5,61395979
46,3802681	88,371727	-6,17476225
31,5869217	89,67276	-6,81095314
21,5220375	91,2585526	-7,66011381
14,6851501	93,0510712	-8,57129192
9,9904108	95,3124695	-9,6621685
6,81718969	97,8752899	-10,3383694
4,63925123	100,790382	-10,9300747
3,16039586	103,78756	-11,7841501
2,1522038	106,49263	-11,6329918
1,46630979	109,411415	-11,3747778
0,998529792	111,706772	-11,1747093

Note: Experimentelles/Ausgewaehlte_Daten/LiS/PEIS/LiS_Klein_Vollprogramm_07_PEIS_C01.txt
1000024,25	112,794472	-19,2716637
681286,5	114,62722	-23,5053673
464160,125	119,098999	-24,3598232
316223,094	124,861023	-25,8003788
215441,859	131,016571	-27,3330956
146777,328	137,158981	-29,1077938
100024,406	143,066772	-30,7940063
68127,4297	149,603394	-33,9020691
46411,125	155,975479	-38,1199951
31628,4121	163,068558	-43,9532471
21545,4082	171,051346	-51,8357277
14672,8496	180,431152	-62,6028404
10015,2705	191,714447	-76,5341873
6856,00244	204,963852	-93,7337723
4642,42725	219,650543	-118,064629
3160,05566	236,66774	-150,473862
2152,93286	258,582611	-195,952744
1468,58972	289,509613	-260,007599
999,040405	334,252777	-345,277344
681,089661	403,188293	-456,096649
464,553894	508,261932	-592,922729
316,315765	667,58429	-748,65094
215,344498	898,255188	-905,979614
146,737289	1195,20813	-1026,31836
99,9040375	1545,01318	-1078,79004
68,1888962	1891,80078	-1049,27905
46,3802681	2204,74121	-943,30542
31,5869217	2449,46777	-797,068176
21,5220375	2626,75098	-646,859131
14,6851501	2750,27515	-512,219116
9,9904108	2831,06567	-398,719879
6,81718969	2892,84766	-316,348328
4,63925123	2930,52295	-260,29126
3,16039586	2955,32666	-217,040817
2,1522038	2982,94458	-188,433441
1,46630979	3018,15161	-174,112076
0,998529792	3065,12769	-180,538742

Note: README.md
# thesis

Zusammenfassung
---------------
Es konnten die Festkörperelektrolytkeramiken LATP, LAGP, LTO und LLTO hergestellt,
mit XRD und MAS-NMR charakterisiert und zu Elektrodensuspensionen weiterverarbeitet
werden. Aus den Daten der MAS-NMR konnten dabei gegenüber der XRD keine Mehrinfor-
mationen gewonnen werden. Die mit den Suspensionen gegossenen und gestanzten Elektro-
denproben wurden mittels REM und EDX untersucht und als Kathode in Testzellen verbaut.
Mit diesen wurden Ladekennlinien erstellt und eine zyklischer Voltametrie durchgeführt. Aus
den Ladekennlinien konnten die Kapazitäten und der Grad der Lithiuminsertation in die
Materialen bestimmt werden. Die zyklische Voltametrie lieferte nicht-reaktive Spannungsbe-
reiche der Materialien.

Für ein noch besseres Verständnis der Lithiumbewegung und -insertation wurde eine in-situ
NMR-Testzelle konzipiert, konstruiert, gebaut und getestet. Für den Test kam dabei eine
Lithium-Schwefel-Zelle zum Einsatz, für welche ein Di?usionskoe?zient sowie ein Spektrum
vor und nach einer 90 minütigen Ladezeit aufgenommen worden ist.

Abstract
--------
The all solid state electrolyte ceramics LATP, LAGP, LTO, and LLTO were successfully
synthesized and characterized by using XRD. MAS-NMR spectroscopy were not able to ge-
nerate additional information. All powders were processed to electrode slurries, casted on
aluminum foils and punched to electrode samples. Those samples were studied by SEM and
EDX and then build into battery test cells. The cells were analyzed by measuring the charge
curves as well as cyclic voltammetry. With the charge curves capacities and the amount of
lithium insertion were calculated. The cyclic voltammetry was able to detect non-reactive
voltage regions.

To be able to better understand lithium movement and insertion a novel in-situ NMR sample
cell was designed, constructed, built and tested. Therefore, a lithium-sulfur-cell was built into
the in-situ sample cell. With this setting a diffusion coeffcient as well as a NMR spectrum
before and after 90 minutes of charging were measured.

File: LiS_Klein_Vollprogramm_04_PEIS_C01.mpt
EC-Lab ASCII FILE
Nb header lines : 68

Potentio Electrochemical Impedance Spectroscopy

Run on channel : 1 (SN 6985)
Grouped channel(s) : 1
User :
CE vs. WE compliance from -10 V to 10 V
Electrode connection : standard
Ewe ctrl range : min = 0,00 V, max = 5,00 V
Acquisition started on : 08/28/2015 15:57:10
Saved on :
	File : LiS_Klein_Vollprogramm_04_PEIS_C01.mpr
	Directory : C:\Gielisch\NeueZelle\LiS-Test\150828\
	Host : 192.168.0.2
Device : VMP3 (SN 0324)
Address : 192.168.0.1
EC-Lab for windows v10.33 (software)
Internet server v10.33 (firmware)
Command interpretor v10.32 (firmware)
Electrode material :
Initial state :
Electrolyte :
Comments :
Mass of active material : 0,001 mg
 at x = 0,000
Molecular weight of active material (at x = 0) : 0,001 g/mol
Atomic weight of intercalated ion : 0,001 g/mol
Acquisition started at : xo = 0,000
Number of e- transfered per intercalated ion : 1
for DX = 1, DQ = 26,801 mA.h
Battery capacity : 0,000 A.h
Electrode surface area : 0,001 cm²
Characteristic mass : 0,001 g
Multi Sine          0
E (V)               0,0000
vs.                 Eoc
tE (h:m:s)          0:00:0,0000
record              0
dI                  0,000
unit dI             mA
dt (s)              0,000
fi                  1,000
unit fi             MHz
ff                  1,000
unit ff             Hz
Sel Nd              1
Nd                  6
Nt                  51
Log                 1
Va (mV)             10,0
pw                  0,10
Na                  2
E range min (V)     0,000
E range max (V)     5,000
I Range             Auto
Bandwidth           5
corr                0
nc cycles           0
goto Ns'            0
nr cycles           0
inc. cycle          0

Number of loops : 1
Loop 0 from point number 0 to 36

freq/Hz	Re(Z)/Ohm	-Im(Z)/Ohm	|Z|/Ohm	Phase(Z)/deg	time/s	<Ewe>/V	<I>/mA	Cs/µF	Cp/µF	cycle number	I Range	|Ewe|/V	|I|/A	Re(Y)/Ohm-1	Im(Y)/Ohm-1	|Y|/Ohm-1	Phase(Y)/deg
1000024,25	40,6286774	-13,0519457	42,6736755	17,8095932	3583,8695	2,31376696	0,776651204	-0,0121936677	-0,00114068249	1	10	0,000933377363	2,18724399E-005	0,0223106667	-0,00716729229	0,0234336499	-17,8095932
681286,5	34,2625504	-2,7085135	34,3694382	4,51993084	3585,1015	2,31400037	0,815243602	-0,0862500444	-0,0005356443	1	10	0,00411749538	0,000119801065	0,0290051289	-0,00229290547	0,0290956162	-4,51993084
464160,125	33,8465614	-0,227010965	33,8473244	0,384280533	3585,4155	2,31417346	0,825032413	-1,51044703	-6,79438963E-005	1	10	0,0100051779	0,000295597303	0,0295437686	-0,000198151858	0,0295444336	-0,384280533
316223,094	33,8730507	1,23986244	33,8957329	-2,0962739	3585,8325	2,31428528	0,83554405	0,405931801	0,000543137779	1	10	0,0102180466	0,000301455264	0,029482495	0,00107915408	0,0295022391	2,0962739
215441,859	34,1797791	2,4348371	34,2663918	-4,07465029	3586,2485	2,31434631	0,845655143	0,303403199	0,00153187453	1	10	0,0101607451	0,000296522165	0,0291093476	0,00207363931	0,0291831139	4,07465029
146777,328	34,7570419	3,69107318	34,9524803	-6,06188679	3586,6645	2,31436682	0,853431702	0,293770701	0,00327610504	1	10	0,0101461969	0,000290285476	0,0284502953	0,00302131963	0,0286102723	6,06188679
100024,406	35,6170692	5,14294052	35,9864616	-8,21645641	3586,9785	2,31416917	0,852526248	0,309387416	0,00631898548	1	10	0,0105389971	0,000292860059	0,0275029875	0,00397130474	0,0277882274	8,21645641
68127,4297	36,4471474	6,82941055	37,0814705	-10,6129284	3587,2925	2,31439543	0,864142776	0,342069954	0,0116029242	1	10	0,0104316948	0,000281318265	0,0265063327	0,00496671628	0,0269676466	10,6129284
46411,125	37,8827667	8,95757008	38,9273949	-13,3035278	3587,6065	2,3143785	0,86881727	0,382831663	0,0202711131	1	10	0,0102057057	0,000262172834	0,0249994807	0,00591125246	0,0256888494	13,3035278
31628,4121	39,9964104	11,4419756	41,6008606	-15,9645052	3587,9205	2,31437731	0,873558879	0,439786345	0,0332689546	1	10	0,0101565849	0,000244143623	0,023110874	0,00661144499	0,0240379646	15,9645052
21545,4082	43,0723839	14,2337751	45,3633194	-18,2867432	3588,1325	2,31438184	0,876081526	0,518973589	0,0510946997	1	10	0,0107937055	0,000237939064	0,0209309645	0,00691688294	0,0220442414	18,2867432
14672,8496	47,4512787	17,0420113	50,4187851	-19,7556267	3588,5785	2,31436944	0,875847876	0,636480033	0,0727179721	1	11	0,00938821211	0,000186204648	0,0186665114	0,00670403196	0,0198338777	19,7556267
10015,2705	53,1379623	19,2202702	56,5071831	-19,885313	3588,8307	2,31438756	0,879013658	0,82679522	0,0956554264	1	11	0,0102266036	0,000180978823	0,0166416951	0,00601938507	0,0176968649	19,885313
6856,00244	59,6359138	19,892437	62,8661385	-18,4468784	3589,1801	2,31438899	0,882813573	1,16697395	0,116843238	1	11	0,0104073314	0,000165547492	0,0150894811	0,00503331842	0,0159068145	18,4468784
4642,42725	66,1507645	18,8382568	68,780838	-15,8957663	3589,6313	2,31438971	0,886901081	1,81984472	0,136515141	1	11	0,00973004941	0,000141464538	0,013982987	0,0039820415	0,0145389335	15,8957663
3160,05566	71,5123062	16,5316296	73,398262	-13,0165148	3590,0823	2,31439233	0,890976906	3,04656005	0,15455018	1	11	0,0100198835	0,000136513903	0,0132742273	0,00306862709	0,0136243012	13,0165148
2152,93286	75,4484024	13,7748947	76,6955643	-10,3467436	3590,5338	2,31439304	0,894750118	5,36662626	0,173116088	1	11	0,0101378327	0,000132182773	0,0128265414	0,00234178919	0,0130385635	10,3467436
1468,58972	78,2124405	11,1673737	79,0056686	-8,12591553	3590,9848	2,31439805	0,898189723	9,70439816	0,193889469	1	11	0,0101900129	0,000128978252	0,0125302374	0,00178909965	0,0126573192	8,12591553
999,040405	80,100975	9,06942463	80,6127853	-6,45979786	3591,4359	2,31439304	0,901355386	17,5653725	0,222335577	1	11	0,0102115273	0,000126673796	0,012326221	0,00139563519	0,0124049801	6,45979786
681,089661	81,4956207	7,47886992	81,8380737	-5,24335861	3591,8863	2,31439161	0,904154062	31,2449532	0,260940224	1	11	0,0102224611	0,000124910817	0,0121681197	0,00111667078	0,0122192511	5,24335861
464,553894	82,5743713	6,40512276	82,8224182	-4,43543291	3592,3378	2,31439185	0,906695902	53,4880257	0,319901049	1	11	0,0102216648	0,000123416641	0,0120378649	0,000933752162	0,0120740253	4,43543291
316,315765	83,5104065	5,73220015	83,7069092	-3,92665434	3592,7868	2,31438971	0,909210026	87,7764359	0,411621481	1	11	0,0102212997	0,000122108191	0,0119184013	0,000818085566	0,0119464453	3,92665434
215,344498	84,4258347	5,31118631	84,5927353	-3,59970427	3593,2373	2,31439304	0,911307752	139,153717	0,548544347	1	11	0,0102218706	0,000120836266	0,0117980232	0,000742207572	0,0118213464	3,59970427
146,737289	85,3180237	5,21391678	85,4771881	-3,49708509	3593,6843	2,314394	0,913183153	208,024994	0,774004102	1	11	0,0102219302	0,00011958665	0,0116772428	0,000713614456	0,0116990274	3,49708509
99,9040375	86,2126007	5,28867483	86,3746643	-3,51038599	3594,1358	2,314394	0,915010929	301,224457	1,12930489	1	11	0,010222747	0,000118353535	0,0115557471	0,000708882289	0,0115774693	3,51038599
68,1888962	87,2314606	5,61395979	87,4119263	-3,68230915	3594,5980	2,31439447	0,916661143	415,7547	1,71488249	1	11	0,0102234548	0,000116957206	0,0114164678	0,000734730216	0,0114400862	3,68230915
46,3802681	88,371727	6,17476225	88,5871887	-3,9969089	3595,0367	2,31439328	0,918081522	555,733521	2,70000935	1	11	0,0102272276	0,000115448158	0,0112608587	0,000786825491	0,0112883141	3,9969089
31,5869217	89,67276	6,81095314	89,9310455	-4,34347105	3595,4666	2,31439042	0,919371426	739,783997	4,24327755	1	11	0,0102245137	0,000113692811	0,0110876942	0,000842148322	0,0111196302	4,34347105
21,5220375	91,2585526	7,66011381	91,5794754	-4,79807949	3595,8885	2,31439137	0,920414567	965,387268	6,75422764	1	11	0,010224048	0,00011164126	0,0108812116	0,00091335352	0,0109194769	4,79807949
14,6851501	93,0510712	8,57129192	93,4450073	-5,26288271	3596,3489	2,31439328	0,921424329	1264,43201	10,6383886	1	11	0,0102231102	0,000109402426	0,0106563671	0,000981598976	0,0107014813	5,26288271
9,9904108	95,3124695	9,6621685	95,8009644	-5,7885046	3596,7998	2,31439567	0,922362983	1648,77795	16,7714901	1	11	0,0102244103	0,000106725543	0,010385083	0,00105277321	0,0104383081	5,7885046
6,81718969	97,8752899	10,3383694	98,4197845	-6,02967882	3597,1393	2,31439424	0,923247218	2258,20142	24,9173565	1	11	0,0102264406	0,00010390635	0,010104347	0,00106730172	0,0101605589	6,02967882
4,63925123	100,790382	10,9300747	101,381302	-6,18917608	3597,6242	2,31439614	0,923796117	3138,69482	36,4820862	1	11	0,0102209961	0,000100817371	0,00980625954	0,00106342637	0,00986375194	6,18917608
3,16039586	103,78756	11,7841501	104,454407	-6,47768307	3598,3181	2,31439376	0,924593866	4273,46729	54,3905411	1	11	0,0102240443	9,78804528E-005	0,00951243564	0,00108005211	0,00957355462	6,47768307
2,1522038	106,49263	11,6329918	107,126129	-6,23413038	3599,3234	2,31438804	0,925640225	6356,89893	74,9613342	1	11	0,0102207232	9,54083152E-005	0,00927958917	0,00101367931	0,00933479052	6,23413038
1,46630979	109,411415	11,3747778	110,001106	-5,93533897	3600,7849	2,3144021	0,926986098	9542,26563	102,033607	1	11	0,0102245128	9,29491798E-005	0,00904208329	0,000940045342	0,00909081753	5,93533897
0,998529792	111,706772	11,1747093	112,26432	-5,71264029	3602,9165	2,31440234	0,927584589	14263,3936	141,322678	1	11	0,0102241505	9,10721283E-005	0,00886331219	0,000886651047	0,00890755001	5,71264029

File: LiS_Klein_Vollprogramm_07_PEIS_C01.mpt
EC-Lab ASCII FILE
Nb header lines : 68

Potentio Electrochemical Impedance Spectroscopy

Run on channel : 1 (SN 6985)
Grouped channel(s) : 1
User :
CE vs. WE compliance from -10 V to 10 V
Electrode connection : standard
Ewe ctrl range : min = 0,00 V, max = 5,00 V
Acquisition started on : 08/28/2015 15:57:10
Saved on :
	File : LiS_Klein_Vollprogramm_07_PEIS_C01.mpr
	Directory : C:\Gielisch\NeueZelle\LiS-Test\150828\
	Host : 192.168.0.2
Device : VMP3 (SN 0324)
Address : 192.168.0.1
EC-Lab for windows v10.33 (software)
Internet server v10.33 (firmware)
Command interpretor v10.32 (firmware)
Electrode material :
Initial state :
Electrolyte :
Comments :
Mass of active material : 0,001 mg
 at x = 0,000
Molecular weight of active material (at x = 0) : 0,001 g/mol
Atomic weight of intercalated ion : 0,001 g/mol
Acquisition started at : xo = 0,000
Number of e- transfered per intercalated ion : 1
for DX = 1, DQ = 26,801 mA.h
Battery capacity : 0,000 A.h
Electrode surface area : 0,001 cm²
Characteristic mass : 0,001 g
Multi Sine          0
E (V)               0,0000
vs.                 Eoc
tE (h:m:s)          0:00:0,0000
record              0
dI                  0,000
unit dI             mA
dt (s)              0,000
fi                  1,000
unit fi             MHz
ff                  1,000
unit ff             Hz
Sel Nd              1
Nd                  6
Nt                  51
Log                 1
Va (mV)             10,0
pw                  0,10
Na                  2
E range min (V)     0,000
E range max (V)     5,000
I Range             Auto
Bandwidth           5
corr                0
nc cycles           0
goto Ns'            0
nr cycles           0
inc. cycle          0

Number of loops : 1
Loop 0 from point number 0 to 36

freq/Hz	Re(Z)/Ohm	-Im(Z)/Ohm	|Z|/Ohm	Phase(Z)/deg	time/s	<Ewe>/V	<I>/mA	Cs/µF	Cp/µF	cycle number	I Range	|Ewe|/V	|I|/A	Re(Y)/Ohm-1	Im(Y)/Ohm-1	|Y|/Ohm-1	Phase(Y)/deg
1000024,25	112,794472	19,2716637	114,42897	-9,69573212	499143,3982	1,68847358	-0,00931091513	0,00825829525	0,000234237727	1	11	0,00206489721	1,80452316E-005	0,00861421786	0,00147179479	0,00873904582	9,69573212
681286,5	114,62722	23,5053673	117,012398	-11,5883827	499144,6302	1,68952417	-0,00631768629	0,00993855577	0,000401045458	1	11	0,00753682898	6,44105166E-005	0,0083718989	0,00171673519	0,00854610279	11,5883827
464160,125	119,098999	24,3598232	121,564682	-11,559515	499144,9442	1,68976343	-0,00624573976	0,0140759656	0,000565212336	1	11	0,0108222375	8,9024521E-005	0,00805922505	0,00164838752	0,00822607335	11,559515
316223,094	124,861023	25,8003788	127,498764	-11,6748753	499145,3602	1,68983197	-0,00638776831	0,0195074491	0,00079880486	1	11	0,010181698	7,98572291E-005	0,00768094976	0,00158713595	0,00784321316	11,6748753
215441,859	131,016571	27,3330956	133,837357	-11,7842054	499145,6742	1,68986201	-0,00651991833	0,0270272102	0,00112726016	1	11	0,0108338194	8,09476478E-005	0,00731427874	0,00152592827	0,00747175561	11,7842054
146777,328	137,158981	29,1077938	140,213593	-11,981514	499145,9882	1,68988276	-0,00658813724	0,0372521952	0,00160542573	1	11	0,0107379416	7,65827426E-005	0,00697660353	0,0014805703	0,00713197608	11,981514
100024,406	143,066772	30,7940063	146,343338	-12,1471434	499146,3022	1,69017422	-0,00496431394	0,0516711324	0,00228788634	1	11	0,0107622426	7,35410504E-005	0,0066802525	0,0014378723	0,00683324598	12,1471434
68127,4297	149,603394	33,9020691	153,396622	-12,7683163	499146,6162	1,6898998	-0,00670500379	0,0689083636	0,00336583448	1	11	0,0105000576	6,8450383E-005	0,00635784352	0,00144076988	0,00651904847	12,7683163
46411,125	155,975479	38,1199951	160,566132	-13,7337236	499146,9302	1,68991745	-0,00675905636	0,0899591297	0,00507040927	1	11	0,010393668	6,47313864E-005	0,00604990311	0,00147858053	0,0062279636	13,7337236
31628,4121	163,068558	43,9532471	168,88826	-15,0849237	499147,2442	1,68991113	-0,0068964255	0,114485845	0,00775416056	1	11	0,0103005115	6,09900962E-005	0,00571704097	0,00154096237	0,00592107465	15,0849237
21545,4082	171,051346	51,8357277	178,733063	-16,8590069	499147,5582	1,689906	-0,00696669472	0,142507002	0,0119862901	1	11	0,0101341847	5,67001116E-005	0,0053544729	0,00162262958	0,00559493573	16,8590069
14672,8496	180,431152	62,6028404	190,983032	-19,1348553	499147,7702	1,68990767	-0,00698197866	0,173265308	0,0186170191	1	11	0,0107435398	5,62538953E-005	0,00494677294	0,00171634462	0,00523606734	19,1348553
10015,2705	191,714447	76,5341873	206,426529	-21,7623444	499148,0225	1,68993986	-0,00688971626	0,207635671	0,028541835	1	11	0,0109994421	5,32850208E-005	0,00449908106	0,00179607503	0,00484433863	21,7623444
6856,00244	204,963852	93,7337723	225,380127	-24,5754967	499148,5388	1,68994045	-0,00710891001	0,247658402	0,0428365022	1	11	0,0100776097	4,47138336E-005	0,00403502304	0,00184529088	0,00443694834	24,5754967
4642,42725	219,650543	118,064629	249,370438	-28,2585278	499148,9901	1,68994236	-0,00722605595	0,290372342	0,0650885925	1	11	0,0094454363	3,78771292E-005	0,00353217614	0,00189858419	0,00401009852	28,2585278
3160,05566	236,66774	150,473862	280,453217	-32,448288	499149,4411	1,68994439	-0,00729352888	0,334706634	0,0963530838	1	11	0,00976535771	3,48199173E-005	0,00300897262	0,00191311131	0,00356565719	32,448288
2152,93286	258,582611	195,952744	324,441742	-37,154686	499149,8926	1,68994272	-0,00739119714	0,377257854	0,137615561	1	11	0,00989731494	3,05056765E-005	0,00245655142	0,00186156365	0,00308221742	37,154686
1468,58972	289,509613	260,007599	389,126923	-41,9269028	499150,5886	1,68994224	-0,00784043875	0,416805685	0,186090052	1	12	0,0103379609	2,6567066E-005	0,00191196718	0,00171713124	0,00256985566	41,9269028
999,040405	334,252777	345,277344	480,563599	-45,9294739	499151,0396	1,68993998	-0,00792559423	0,461390913	0,238178983	1	12	0,010202013	2,12292671E-005	0,0014473492	0,0014950867	0,00208089012	45,9294739
681,089661	403,188293	456,096649	608,756897	-48,5233994	499151,4901	1,68994224	-0,00797734316	0,512340844	0,287597388	1	12	0,0101095466	1,66068694E-005	0,00108797802	0,0012307479	0,0016426919	48,5233994
464,553894	508,261932	592,922729	780,953003	-49,3963394	499151,9416	1,68994308	-0,00803946983	0,577811182	0,333067566	1	12	0,0100437356	1,28608708E-005	0,000833369908	0,000972183654	0,00128048682	49,3963394
316,315765	667,58429	748,65094	1003,06879	-48,2760925	499152,3906	1,68994117	-0,00809301715	0,672078371	0,374383956	1	12	0,0100076497	9,97703228E-006	0,000663505693	0,000744077144	0,000996940653	48,2760925
215,344498	898,255188	905,979614	1275,79834	-45,2452965	499152,8411	1,6899395	-0,00815142691	0,815770328	0,411377639	1	12	0,00999489613	7,83422911E-006	0,000551868579	0,00055661425	0,000783822907	45,2452965
146,737289	1195,20813	1026,31836	1575,3894	-40,6524963	499153,2880	1,68993938	-0,00822952017	1,05681157	0,448524207	1	12	0,00998442154	6,33774835E-006	0,000481579162	0,000413529255	0,000634763681	40,6524963
99,9040375	1545,01318	1078,79004	1884,37097	-34,9242859	499153,7396	1,68994498	-0,00826396141	1,47672677	0,483995378	1	12	0,00997875445	5,29553608E-006	0,000435110327	0,000303811423	0,000530681049	34,9242859
68,1888962	1891,80078	1049,27905	2163,30688	-29,0147495	499154,4527	1,68994582	-0,00829381961	2,22441316	0,523312628	1	13	0,00999846682	4,6218438E-006	0,000404239865	0,000224209871	0,000462255266	29,0147495
46,3802681	2204,74121	943,30542	2398,06348	-23,1638126	499154,8914	1,6899457	-0,00834103674	3,63776398	0,562882602	1	13	0,00998460781	4,16361263E-006	0,00038338601	0,000164032899	0,000417003146	23,1638126
31,5869217	2449,46777	797,068176	2575,89014	-18,0251293	499155,3213	1,68994963	-0,00838101748	6,32145977	0,605276287	1	13	0,00997553114	3,87265391E-006	0,000369162066	0,000120127057	0,000388215325	18,0251293
21,5220375	2626,75098	646,859131	2705,22583	-13,8342924	499155,7432	1,6899507	-0,00842271745	11,432128	0,653641224	1	13	0,009979886	3,68911378E-006	0,00035893172	8,83899047E-005	0,00036965491	13,8342924
14,6851501	2750,27515	512,219116	2797,56714	-10,5500574	499156,2037	1,68994772	-0,00846307352	21,1585541	0,70931071	1	13	0,00997584313	3,56589931E-006	0,000351410825	6,54477553E-005	0,000357453449	10,5500574
9,9904108	2831,06567	398,719879	2859,00513	-8,01666164	499156,6545	1,68995333	-0,00849874411	39,954792	0,777096212	1	13	0,00997425709	3,48871617E-006	0,000346353889	4,87795769E-005	0,000349772017	8,01666164
6,81718969	2892,84766	316,348328	2910,09351	-6,24080086	499156,9940	1,68994594	-0,00853289943	73,7987823	0,872100234	1	13	0,00997385755	3,42733233E-006	0,000341595151	3,73552502E-005	0,000343631575	6,24080086
4,63925123	2930,52295	260,29126	2942,05981	-5,07573462	499157,4789	1,68994629	-0,00856358744	131,799164	1,0316416	1	13	0,00997077487	3,38904556E-006	0,000338565034	3,00716019E-005	0,000339897902	5,07573462
3,16039586	2955,32666	217,040817	2963,28564	-4,20029306	499158,1728	1,68995273	-0,00861545932	232,026291	1,24472392	1	13	0,00997357257	3,36571406E-006	0,00033655687	2,4716921E-005	0,000337463251	4,20029306
2,1522038	2982,94458	188,433441	2988,89038	-3,61458731	499159,1781	1,68994701	-0,00868739188	392,444946	1,55982089	1	13	0,00997775607	3,33828098E-006	0,000333906763	2,10929829E-005	0,000334572338	3,61458731
1,46630979	3018,15161	174,112076	3023,16968	-3,30163741	499160,6397	1,68994904	-0,00877638534	623,398193	2,06775117	1	13	0,00997272041	3,29876298E-006	0,00033022961	1,90503888E-005	0,000330778654	3,30163741
0,998529792	3065,12769	180,538742	3070,43994	-3,37087774	499162,7722	1,68994987	-0,00888390653	882,853638	3,05230761	1	13	0,00997254066	3,24791904E-006	0,000325122761	1,91500185E-005	0,00032568624	3,37087774