Folder: thesis/Experimentelles/Ausgewaehlte_Daten/LiS/PEIS (part 2)

File: LiS_NMR_04_PEIS_C01.mpt
EC-Lab ASCII FILE
Nb header lines : 68

Potentio Electrochemical Impedance Spectroscopy

Run on channel : 1 (SN 6985)
Grouped channel(s) : 1
User :
CE vs. WE compliance from -10 V to 10 V
Electrode connection : standard
Ewe ctrl range : min = 0,00 V, max = 5,00 V
Acquisition started on : 09.17.2015 16:13:32
Saved on :
	File : LiS_NMR_04_PEIS_C01.mpr
	Directory : C:\Gielisch\NeueZelle\LiS-Test\150917\
	Host : 192.168.0.2
Device : VMP3 (SN 0324)
Address : 192.168.0.1
EC-Lab for windows v10.33 (software)
Internet server v10.33 (firmware)
Command interpretor v10.32 (firmware)
Electrode material :
Initial state :
Electrolyte :
Comments :
Mass of active material : 0,001 mg
 at x = 0,000
Molecular weight of active material (at x = 0) : 0,001 g/mol
Atomic weight of intercalated ion : 0,001 g/mol
Acquisition started at : xo = 0,000
Number of e- transfered per intercalated ion : 1
for DX = 1, DQ = 26,801 mA.h
Battery capacity : 0,000 A.h
Electrode surface area : 0,001 cm²
Characteristic mass : 0,001 g
Multi Sine          0
E (V)               0,0000
vs.                 Eoc
tE (h:m:s)          0:00:0,0000
record              0
dI                  0,000
unit dI             mA
dt (s)              0,000
fi                  1,000
unit fi             MHz
ff                  1,000
unit ff             Hz
Sel Nd              1
Nd                  6
Nt                  51
Log                 1
Va (mV)             10,0
pw                  0,10
Na                  2
E range min (V)     0,000
E range max (V)     5,000
I Range             Auto
Bandwidth           5
corr                0
nc cycles           0
goto Ns'            0
nr cycles           0
inc. cycle          0

Number of loops : 1
Loop 0 from point number 0 to 36

freq/Hz	Re(Z)/Ohm	-Im(Z)/Ohm	|Z|/Ohm	Phase(Z)/deg	time/s	<Ewe>/V	<I>/mA	Cs/µF	Cp/µF	cycle number	I Range	|Ewe|/V	|I|/A	Re(Y)/Ohm-1	Im(Y)/Ohm-1	|Y|/Ohm-1	Phase(Y)/deg
1000024,25	30,3602619	-4,41804743	30,6800365	8,27960682	3224,0383	2,6730001	0,87721622	-0,0360229462	-0,000747013139	1	10	0,000836492341	2,72650377E-005	0,0322547592	-0,00469373632	0,0325944871	-8,27960682
681286,5	28,0933704	0,873048007	28,1069336	-1,77998829	3225,2703	2,6733954	0,871086597	0,267579108	0,000258167478	1	10	0,00362383272	0,000128930202	0,0355612449	0,00110512448	0,0355784111	1,77998829
464160,125	28,6703644	2,9047184	28,8171329	-5,7851429	3225,5843	2,67358208	0,87046802	0,118045181	0,00119937444	1	10	0,00985896122	0,000342121522	0,0345248394	0,00349786063	0,0347015783	5,7851429
316223,094	29,6677151	3,9527595	29,9298782	-7,5890727	3226,0003	2,6737144	0,868213654	0,127328664	0,0022208388	1	10	0,0101542538	0,000339268125	0,0331187695	0,00441255886	0,0334114283	7,5890727
215441,859	30,8363819	4,76373863	31,2021732	-8,78187943	3226,4163	2,67376065	0,865100384	0,155075118	0,00361466687	1	10	0,0101489211	0,000325263274	0,0316733271	0,00489303377	0,0320490487	8,78187943
146777,328	31,9830799	5,48377371	32,4497948	-9,729249	3226,8323	2,67380357	0,862342954	0,197734132	0,00564698689	1	10	0,010139849	0,000312478049	0,0303736087	0,00520781567	0,0308168363	9,729249
100024,406	33,1819038	6,28041124	33,7710266	-10,7177143	3227,1463	2,67386627	0,860159457	0,253353029	0,00876221061	1	10	0,010708252	0,000317083992	0,0290946253	0,00550680328	0,0296111815	10,7177143
68127,4297	34,4742699	7,61737013	35,3058014	-12,4597702	3227,4603	2,67381787	0,857603252	0,306685388	0,0142761488	1	10	0,0104059782	0,000294738478	0,0276568644	0,00611100905	0,0283239577	12,4597702
46411,125	36,2031746	9,04791546	37,3166809	-14,0319557	3227,7743	2,67382169	0,855000496	0,379009008	0,0222813021	1	10	0,0103179393	0,000276496692	0,0259980429	0,00649744319	0,0267976671	14,0319557
31628,4121	38,5909767	10,9086885	40,1031532	-15,7842493	3228,0883	2,67381263	0,85226357	0,461285919	0,0341317244	1	10	0,0101463422	0,000253006088	0,0239954386	0,00678290101	0,0249356944	15,7842493
21545,4082	41,6477242	12,6877069	43,5374641	-16,9430141	3228,3003	2,67381048	0,850314796	0,582213461	0,0494449884	1	10	0,0107687153	0,000247343647	0,0219717678	0,00669355551	0,0229687244	16,9430141
14672,8496	45,6625404	14,0825968	47,7848015	-17,1400719	3228,7463	2,67379785	0,838921845	0,770234406	0,0668973401	1	11	0,00910535827	0,000190549254	0,0199977197	0,00616741506	0,0209271554	17,1400719
10015,2705	50,3735809	14,7589407	52,4911804	-16,3300419	3228,9985	2,6738131	0,837064326	1,07671869	0,0851216316	1	11	0,00997832604	0,000190095292	0,0182822719	0,00535651762	0,0190508198	16,3300419
6856,00244	55,1398659	14,1569252	56,9282303	-14,3994284	3229,3489	2,67382789	0,834440291	1,63975966	0,101405784	1	11	0,0102472743	0,000180003393	0,0170141533	0,00436831126	0,0175659768	14,3994284
4642,42725	59,3614197	12,4455557	60,6520386	-11,8409729	3229,8001	2,6738193	0,830607235	2,75461388	0,115984112	1	11	0,00965002179	0,00015910466	0,0161366537	0,00338316755	0,0164874922	11,8409729
3160,05566	62,3679886	10,4095373	63,2307243	-9,4756155	3230,2511	2,67382264	0,826627493	4,8383131	0,131129533	1	11	0,00997342169	0,000157730625	0,0155993113	0,00260360516	0,015815096	9,4756155
2152,93286	64,5579453	8,45166016	65,1088257	-7,45850945	3230,7027	2,67382336	0,822517335	8,746768	0,147384539	1	11	0,0101140914	0,000155341331	0,0152289504	0,00199371134	0,0153589007	7,45850945
1468,58972	66,020813	6,86101484	66,376358	-5,93299532	3231,1537	2,67382479	0,818381131	15,7954254	0,168764532	1	11	0,0101784356	0,000153344299	0,0149849048	0,00155726145	0,0150656048	5,93299532
999,040405	67,0753098	5,69772673	67,3168716	-4,85534668	3231,6047	2,67381763	0,814242005	27,9598923	0,200304568	1	11	0,0102018891	0,000151550252	0,0148018096	0,00125734298	0,0148551166	4,85534668
681,089661	67,9392776	4,92081976	68,1172485	-4,14268064	3232,0551	2,67382574	0,81016767	47,4873962	0,247821569	1	11	0,0102171851	0,000149994099	0,0146422125	0,00106053066	0,0146805691	4,14268064
464,553894	68,7473373	4,51107502	68,8951797	-3,75426269	3232,5067	2,67382598	0,806054831	75,9458389	0,325601518	1	11	0,0102214431	0,000148362233	0,0144836558	0,000950391172	0,0145148039	3,75426269
316,315765	69,4563522	4,28987789	69,588707	-3,534307	3232,9556	2,67382765	0,801921248	117,288216	0,445724696	1	11	0,0102235451	0,000146913851	0,0143428165	0,000885864778	0,0143701481	3,534307
215,344498	70,1959	4,37557554	70,3321381	-3,5668478	3233,4061	2,67382598	0,797933519	168,908356	0,653753281	1	11	0,0102236606	0,000145362574	0,0141907092	0,000884560577	0,0142182512	3,5668478
146,737289	70,9305191	4,68774557	71,0852585	-3,78113675	3233,8531	2,67383122	0,793971837	231,374542	1,00620055	1	11	0,0102219693	0,000143798723	0,0140369926	0,000927694375	0,0140676145	3,78113675
99,9040375	71,7457352	5,29389572	71,9407806	-4,22003078	3234,3046	2,67382383	0,789911449	300,927399	1,62952936	1	11	0,010221472	0,000142081757	0,0138626359	0,00102288101	0,0139003219	4,22003078
68,1888962	72,6840286	6,21620941	72,9493637	-4,88825369	3234,7668	2,67382813	0,785849392	375,474823	2,7263968	1	11	0,0102184489	0,000140075921	0,0136582796	0,00116810692	0,0137081388	4,88825369
46,3802681	73,9059982	7,43131208	74,2786713	-5,74184132	3235,2055	2,67382503	0,781648397	461,76535	4,62193775	1	11	0,0102201533	0,000137592026	0,0133952685	0,00134690583	0,0134628145	5,74184132
31,5869217	75,3876114	9,02433968	75,925827	-6,82615948	3235,6354	2,67382264	0,777910113	558,338257	7,88767862	1	11	0,010220143	0,000134606933	0,0130773857	0,00156543986	0,0131707489	6,82615948
21,5220375	77,1883392	11,1484175	77,9892731	-8,21847534	3236,0573	2,67382407	0,773965955	663,320679	13,5543985	1	11	0,010222869	0,000131080451	0,0126905935	0,00183291978	0,012822276	8,21847534
14,6851501	79,419754	13,8028984	80,6102829	-9,85934162	3236,5177	2,67382669	0,770188391	785,184021	23,0213699	1	11	0,0102232704	0,000126823405	0,0122221513	0,00212417054	0,0124053648	9,85934162
9,9904108	82,1292648	16,9974041	83,8697052	-11,6928091	3236,9687	2,6738286	0,766076803	937,247253	38,4954262	1	11	0,0102244085	0,000121908241	0,0116758281	0,00241641956	0,0119232563	11,6928091
6,81718969	85,529129	21,6246891	88,2205124	-14,1889772	3237,3081	2,67382312	0,763695896	1079,60498	64,8672485	1	11	0,0102232667	0,0001158831	0,0109894229	0,00277850218	0,0113352323	14,1889772
4,63925123	88,9843674	26,2482243	92,7749252	-16,4347782	3237,7930	2,67382908	0,759131789	1306,99011	104,619095	1	11	0,0102208108	0,000110167814	0,01033838	0,00304957083	0,0107787745	16,4347782
3,16039586	94,1628647	33,3312263	99,8880157	-19,492651	3238,4870	2,67383075	0,753659844	1510,87085	168,229889	1	11	0,0102214869	0,000102329461	0,00943741109	0,00334060052	0,010011211	19,492651
2,1522038	102,889915	42,9986916	111,513329	-22,6805229	3239,4923	2,67383194	0,745992899	1719,81409	255,704529	1	11	0,0102241421	9,16853824E-005	0,00827407185	0,00345781469	0,00896753836	22,6805229
1,46630979	111,787338	58,7621346	126,290924	-27,7291107	3240,9537	2,67383432	0,734647095	1847,12732	399,896576	1	11	0,010224917	8,09631965E-005	0,00700887525	0,0036842858	0,0079182256	27,7291107
0,998529792	121,045494	74,5950623	142,184509	-31,6437206	3243,0854	2,67383552	0,718598485	2136,72705	588,118225	1	11	0,0102220159	7,18926094E-005	0,00598747935	0,00368982297	0,00703311479	31,6437206

File: LiS_NMR_07_PEIS_C01.mpt
EC-Lab ASCII FILE
Nb header lines : 68

Potentio Electrochemical Impedance Spectroscopy

Run on channel : 1 (SN 6985)
Grouped channel(s) : 1
User :
CE vs. WE compliance from -10 V to 10 V
Electrode connection : standard
Ewe ctrl range : min = 0,00 V, max = 5,00 V
Acquisition started on : 09.17.2015 16:13:32
Saved on :
	File : LiS_NMR_07_PEIS_C01.mpr
	Directory : C:\Gielisch\NeueZelle\LiS-Test\150917\
	Host : 192.168.0.2
Device : VMP3 (SN 0324)
Address : 192.168.0.1
EC-Lab for windows v10.33 (software)
Internet server v10.33 (firmware)
Command interpretor v10.32 (firmware)
Electrode material :
Initial state :
Electrolyte :
Comments :
Mass of active material : 0,001 mg
 at x = 0,000
Molecular weight of active material (at x = 0) : 0,001 g/mol
Atomic weight of intercalated ion : 0,001 g/mol
Acquisition started at : xo = 0,000
Number of e- transfered per intercalated ion : 1
for DX = 1, DQ = 26,801 mA.h
Battery capacity : 0,000 A.h
Electrode surface area : 0,001 cm²
Characteristic mass : 0,001 g
Multi Sine          0
E (V)               0,0000
vs.                 Eoc
tE (h:m:s)          0:00:0,0000
record              0
dI                  0,000
unit dI             mA
dt (s)              0,000
fi                  1,000
unit fi             MHz
ff                  1,000
unit ff             Hz
Sel Nd              1
Nd                  6
Nt                  51
Log                 1
Va (mV)             10,0
pw                  0,10
Na                  2
E range min (V)     0,000
E range max (V)     5,000
I Range             Auto
Bandwidth           5
corr                0
nc cycles           0
goto Ns'            0
nr cycles           0
inc. cycle          0

Number of loops : 1
Loop 0 from point number 0 to 36

freq/Hz	Re(Z)/Ohm	-Im(Z)/Ohm	|Z|/Ohm	Phase(Z)/deg	time/s	<Ewe>/V	<I>/mA	Cs/µF	Cp/µF	cycle number	I Range	|Ewe|/V	|I|/A	Re(Y)/Ohm-1	Im(Y)/Ohm-1	|Y|/Ohm-1	Phase(Y)/deg
1000024,25	115,425247	31,8281994	119,733131	-15,416049	108481,0988	1,68707311	-0,0101422118	0,005000317	0,000353340147	1	11	0,00200659386	1,6758886E-005	0,00805141404	0,00222015544	0,00835190713	15,416049
681286,5	123,169823	32,2249527	127,315567	-14,6616735	108482,3308	1,68683231	-0,0146272965	0,00724933296	0,000464429293	1	11	0,00827157032	6,4969041E-005	0,00759873493	0,00198805891	0,00785449892	14,6616735
464160,125	127,864777	37,1256828	133,145477	-16,1907139	108482,7468	1,68708205	-0,0145352203	0,00923587102	0,000718081836	1	11	0,0100755906	7,56735462E-005	0,00721270405	0,00209421664	0,00751058199	16,1907139
316223,094	135,487991	43,9637451	142,442291	-17,9774399	108483,1628	1,68716359	-0,0146153672	0,0114480592	0,00109054439	1	11	0,0100759491	7,07370637E-005	0,00667763827	0,00216678972	0,00702038687	17,9774399
215441,859	144,774933	52,7498589	154,085464	-20,019598	108483,4768	1,68720365	-0,0147298109	0,0140045369	0,00164130016	1	11	0,0108612683	7,0488597E-005	0,00609775586	0,00222176407	0,0064899046	20,019598
146777,328	156,139114	63,039669	168,38475	-21,98592	108483,7908	1,68721116	-0,0148284109	0,0172007438	0,00241084653	1	11	0,010791257	6,40869039E-005	0,00550688757	0,0022233529	0,00593878003	21,98592
100024,406	169,271271	73,4136658	184,50563	-23,4465828	108484,1048	1,68742275	-0,0143402573	0,0216739085	0,00343140378	1	11	0,0107469251	5,82471403E-005	0,0049723764	0,00215654075	0,005419889	23,4465828
68127,4297	187,704147	89,1885834	207,815903	-25,4149685	108484,4188	1,68721938	-0,0149823697	0,0261932202	0,00482447259	1	11	0,0105658397	5,08423072E-005	0,00434626639	0,00206515053	0,00481195142	25,4149685
46411,125	209,296616	104,865486	234,097931	-26,6125946	108484,7328	1,68724334	-0,0150079047	0,0327013358	0,0065619885	1	11	0,0103728734	4,43099743E-005	0,00381915271	0,00191353937	0,00427171635	26,6125946
31628,4121	235,335846	122,604012	265,357697	-27,5183716	108485,0468	1,68724	-0,0151344631	0,0410429053	0,0087616127	1	11	0,0102551365	3,86464635E-005	0,00334214047	0,00174117053	0,00376849808	27,5183716
21545,4082	266,703705	141,594772	301,960175	-27,9641323	108485,3608	1,68722975	-0,0151437819	0,0521696769	0,0114713171	1	11	0,0100398166	3,32488089E-005	0,002925026	0,0015529159	0,00331169507	27,9641323
14672,8496	304,780853	160,002991	344,227142	-27,6984482	108485,5728	1,6872319	-0,0152386548	0,0677918643	0,0146468263	1	11	0,0103735756	3,01358432E-005	0,00257215672	0,00135032367	0,00290505844	27,6984482
10015,2705	349,737122	177,086487	392,014893	-26,8549957	108485,8251	1,68726361	-0,0152209485	0,0897370949	0,0183120817	1	11	0,0104774926	2,67272826E-005	0,00227581314	0,00115233904	0,0025509235	26,8549957
6856,00244	400,03952	191,571381	443,543915	-25,5888824	108486,3705	1,68725598	-0,0159230847	0,121176526	0,0226051044	1	12	0,0109519837	2,46919935E-005	0,00203343201	0,000973772258	0,00225456827	25,5888824
4642,42725	455,545013	199,849762	497,454712	-23,6872883	108486,8216	1,68725419	-0,0159762502	0,171542361	0,0276867244	1	12	0,010196263	2,04968674E-005	0,00184087455	0,000807600387	0,00201023323	23,6872883
3160,05566	512,036316	202,517914	550,631165	-21,5795288	108487,2727	1,68725133	-0,0160570834	0,248692095	0,0336408764	1	12	0,010431814	1,8945193E-005	0,00168880378	0,000667946821	0,00181609776	21,5795288
2152,93286	568,009583	201,039169	602,537659	-19,4907169	108487,7242	1,68725276	-0,0161035322	0,367712975	0,0409356728	1	12	0,0104937376	1,74159031E-005	0,00156454218	0,000553748163	0,00165964733	19,4907169
1468,58972	622,380249	193,552032	651,78186	-17,2750034	108488,1752	1,68724787	-0,0161581784	0,559914768	0,0493756533	1	12	0,0105029372	1,61141907E-005	0,00146504608	0,000455609988	0,00153425569	17,2750034
999,040405	674,240051	181,609039	698,270386	-15,0750542	108488,6262	1,68725312	-0,016203519	0,877202094	0,059337236	1	12	0,0104962066	1,50317228E-005	0,00138282531	0,000372469076	0,00143210997	15,0750542
681,089661	721,480713	164,438431	739,982727	-12,8394165	108489,0767	1,68725264	-0,0162613411	1,42106032	0,0701739639	1	12	0,0104874223	1,41725232E-005	0,00131759397	0,000300303363	0,00135138293	12,8394165
464,553894	761,845764	144,993317	775,520508	-10,7755766	108489,5282	1,68724823	-0,0162922125	2,36284947	0,0825934187	1	12	0,010476727	1,35092841E-005	0,00126671954	0,00024108011	0,0012894565	10,7755766
316,315765	795,142944	122,096146	804,462402	-8,72972298	108489,9771	1,68725228	-0,0163333714	4,12094975	0,094926998	1	12	0,0104723787	1,30178596E-005	0,00122866558	0,000188664621	0,00124306616	8,72972298
215,344498	821,493408	102,294777	827,837952	-7,09810162	108490,4277	1,68725669	-0,0163652673	7,22491693	0,110318698	1	12	0,0104706185	1,264815E-005	0,00119870808	0,000149266649	0,00120796589	7,09810162
146,737289	840,682434	84,765976	844,945129	-5,75767136	108490,8746	1,68725514	-0,0164105501	12,7955236	0,128778741	1	12	0,0104672443	1,23880754E-005	0,00117753807	0,000118731114	0,00118350878	5,75767136
99,9040375	854,737183	69,1803741	857,532288	-4,62729597	108491,3262	1,6872524	-0,0164405387	23,0278931	0,149871498	1	12	0,0104661053	1,22049114E-005	0,00116233586	9,40766695E-005	0,00116613682	4,62729597
68,1888962	866,051697	58,1468773	868,001526	-3,84108496	108491,7883	1,68725109	-0,0164707508	40,1402512	0,180132419	1	12	0,0104677221	1,20595669E-005	0,00114948384	7,71765626E-005	0,00115207175	3,84108496
46,3802681	873,765076	49,8187675	875,184143	-3,26325488	108492,2270	1,68724966	-0,0164999273	68,8801193	0,223193198	1	12	0,0104691116	1,19621818E-005	0,00114076398	6,50420334E-005	0,00114261673	3,26325488
31,5869217	881,886536	45,2259216	883,04541	-2,93573666	108492,6569	1,68725383	-0,0165316463	111,410324	0,292236328	1	12	0,0104658743	1,18520229E-005	0,00113095844	5,79991174E-005	0,00113244459	2,93573666
21,5220375	888,756348	43,3317108	889,812073	-2,79127073	108493,0788	1,687253	-0,0165570509	170,659683	0,404711932	1	12	0,0104663623	1,17624413E-005	0,00112249947	5,4727956E-005	0,00112383277	2,79127073
14,6851501	894,602539	44,7836075	895,722778	-2,86582184	108493,5393	1,68724954	-0,0165972654	242,004074	0,604941785	1	12	0,0104691964	1,16879874E-005	0,0011150206	5,58176871E-005	0,00111641688	2,86582184
9,9904108	901,253296	48,4860611	902,55658	-3,07945728	108493,9902	1,68725121	-0,0166180674	328,563934	0,948210597	1	12	0,0104664015	1,1596394E-005	0,00110636384	5,95206948E-005	0,00110796373	3,07945728
6,81718969	908,809204	56,8943634	910,588318	-3,58222413	108494,3297	1,68724823	-0,016623592	410,341522	1,60191631	1	12	0,0104651712	1,14927579E-005	0,00109604548	6,86159474E-005	0,00109819113	3,58222413
4,63925123	918,32843	69,3381348	920,942383	-4,31790876	108495,0755	1,68726134	-0,0166335739	494,766296	2,80465531	1	13	0,0104699144	1,13686965E-005	0,00108276226	8,17536566E-005	0,00108584424	4,31790876
3,16039586	931,791077	86,4110641	935,789246	-5,29825735	108495,7694	1,68725955	-0,016693471	582,786255	4,96926212	1	13	0,0104700448	1,11884647E-005	0,00106405094	9,86763844E-005	0,00106861664	5,29825735
2,1522038	950,941772	106,002357	956,831604	-6,36055565	108496,7748	1,68725991	-0,0166955628	697,623657	8,56211853	1	13	0,0104706269	1,09430193E-005	0,00103868265	0,000115782925	0,00104511599	6,36055565
1,46630979	975,489746	136,441956	984,985596	-7,96231699	108498,2363	1,68726242	-0,0167172458	795,511536	15,2645006	1	13	0,0104607949	1,06202515E-005	0,00100545562	0,000140633303	0,00101524324	7,96231699
0,998529792	1005,44916	167,589508	1019,3205	-9,46313381	108500,3679	1,68726194	-0,0167903788	951,069519	25,7089539	1	13	0,010466258	1,02678778E-005	0,000967695203	0,000161296615	0,000981045654	9,46313381