Folder: thesis/Experimentelles/Rohdaten/Batteriemessungen/AlteZelle/Studenten_Batterietests/LiCoO2_LATP_Li/PEIS_GCPL/ECLab-Export (part 2)

File: LiCoO2_LATP_Li_06_PEIS_C02.mpt
EC-Lab ASCII FILE
Nb header lines : 78

Potentio Electrochemical Impedance Spectroscopy

Run on channel : 2 (SN 6986)
Grouped channel(s) : 2
User :
CE vs. WE compliance from -10 V to 10 V
Electrode connection : standard
Ewe ctrl range : min = -10,00 V, max = 10,00 V
Acquisition started on : 02.12.2015 14:59:29
Saved on :
	File : LiCoO2_LATP_Li_06_PEIS_C02.mpr
	Directory : C:\Hupfer\Studenten Batterietests\LiCoO2_LATP_Li\PEIS_GCPL\
	Host : 192.168.0.2
Device : VMP3 (SN 0324)
Address : 192.168.0.1
EC-Lab for windows v10.33 (software)
Internet server v10.33 (firmware)
Command interpretor v10.32 (firmware)
Electrode material :
Initial state :
Electrolyte :
Comments :
Mass of active material : 0,001 mg
 at x = 0,000
Molecular weight of active material (at x = 0) : 0,001 g/mol
Atomic weight of intercalated ion : 0,001 g/mol
Acquisition started at : xo = 0,000
Number of e- transfered per intercalated ion : 1
for DX = 1, DQ = 26,801 mA.h
Battery capacity : 0,000 A.h
Electrode surface area : 0,001 cm²
Characteristic mass : 0,001 g
Multi Sine          0
E (V)               0,0000
vs.                 Eoc
tE (h:m:s)          0:00:0,0000
record              0
dI                  0,000
unit dI             mA
dt (s)              0,000
fi                  1,000
unit fi             MHz
ff                  1,000
unit ff             Hz
Sel Nd              1
Nd                  6
Nt                  51
Log                 1
Va (mV)             10,0
pw                  0,10
Na                  2
E range min (V)     -10,000
E range max (V)     10,000
I Range             Auto
Bandwidth           5
corr                0
nc cycles           0
goto Ns'            0
nr cycles           0
inc. cycle          0

Number of loops : 11
Loop 0 from point number 0 to 36
Loop 1 from point number 37 to 73
Loop 2 from point number 74 to 110
Loop 3 from point number 111 to 147
Loop 4 from point number 148 to 184
Loop 5 from point number 185 to 221
Loop 6 from point number 222 to 258
Loop 7 from point number 259 to 295
Loop 8 from point number 296 to 332
Loop 9 from point number 333 to 369
Loop 10 from point number 370 to 406

freq/Hz	Re(Z)/Ohm	-Im(Z)/Ohm	|Z|/Ohm	Phase(Z)/deg	time/s	<Ewe>/V	<I>/mA	Cs/µF	Cp/µF	cycle number	I Range	|Ewe|/V	|I|/A	Re(Y)/Ohm-1	Im(Y)/Ohm-1	|Y|/Ohm-1	Phase(Y)/deg
1000024,25	297,199585	809,253479	862,101379	-69,8341599	1845,1133	1,78451145	-0,00168692181	0,000196664085	0,000173291599	1	12	0,0052892426	6,13529073E-006	0,000399881741	0,0010888495	0,00115995633	69,8341599
31628,4121	4814,16504	6383,11963	7995,02344	-52,9763107	1848,3773	1,78545392	1,00420857E-005	0,000788333127	0,000502500217	1	13	0,0105577614	1,32054163E-006	7,53149943E-005	9,98604446E-005	0,0001250778	52,9763107
999,040405	21953,5332	78910,1875	81907,1172	-74,4529495	1852,3227	1,78550041	2,0260909E-006	0,00201884983	0,00187381578	1	14	0,0104593551	1,2769776E-007	3,27236035E-006	1,1762234E-005	1,22089514E-005	74,4529495
31,5869217	564679,625	1533547,38	1634206,38	-69,7853851	1856,3535	1,78550076	2,36704841E-006	0,00328560709	0,00289331842	1	14	0,0102826748	6,29215213E-009	2,11440593E-007	5,74226704E-007	6,11917812E-007	69,7853851
0,998529792	6698644,5	2181689,75	7044970,5	-18,0399761	1863,8044	1,78551269	2,19374169E-006	0,0730577186	0,00700638071	1	14	0,0102845458	1,45984225E-009	1,34967308E-007	4,39576695E-008	1,41945236E-007	18,0399761
46411,125	3732,15381	5173,75391	6379,39648	-54,1947212	23494,0689	4,99990845	0,000798982219	0,000662814942	0,000435957976	2	13	0,010427502	1,63455934E-006	9,17065408E-005	0,000127129577	0,000156754642	54,1947212
1468,58972	18765,582	53826,9453	57004,2734	-70,780014	23497,6622	4,99996519	0,000677471806	0,00201335317	0,00179516582	2	14	0,00974964723	1,71033619E-007	5,7749362E-006	1,65647507E-005	1,75425448E-005	70,780014
46,3802681	547576,938	579783,938	797489,75	-46,6364098	23501,7141	4,99996233	0,000645337452	0,00591862295	0,00312825991	2	14	0,00943492912	1,18307844E-008	8,60983619E-007	9,11624397E-007	1,25393456E-006	46,6364098
1,46630979	1765902,75	311778,688	1793214,63	-10,012661	23507,4623	4,99997139	0,000631852483	0,348135263	0,0105238901	2	14	0,00943149813	5,25954791E-009	5,4916427E-007	9,69576064E-008	5,57657756E-007	10,012661
68127,4297	2769,4375	4211,38281	5040,38965	-56,6707726	45128,6610	4,99959517	0,000791454688	0,000554719532	0,000387252861	3	13	0,00955422502	1,89553293E-006	0,000109009256	0,000165766396	0,000198397363	56,6707726
2152,93286	14918,916	38733,9453	41507,7422	-68,9351196	45132,1173	4,99962378	0,000681680103	0,00190852524	0,00166196993	3	14	0,0100106262	2,41174916E-007	8,65922539E-006	2,24819269E-005	2,40918907E-005	68,9351196
68,1888962	378177,313	621918,375	727874	-58,6969719	45136,1814	4,99962711	0,000604787085	0,00375295244	0,00273985416	3	14	0,00943344086	1,29602657E-008	7,13810721E-007	1,17387265E-006	1,37386417E-006	58,6969719
2,1522038	1655800,5	793688,625	1836196,38	-25,6101856	45140,9069	4,99964571	0,00054684846	0,0931722447	0,017407991	3	14	0,00943142641	5,13639309E-009	4,91099797E-007	2,35402965E-007	5,44604063E-007	25,6101856
100024,406	2052,42554	3574,94507	4122,21826	-60,1392708	66767,5609	4,99954939	0,000896047917	0,000445086858	0,000334750745	4	12	0,010614953	2,57505849E-006	0,00012078289	0,000210381433	0,000242587834	60,1392708
3160,05566	12305,8662	28180,0508	30749,791	-66,4097214	66770,8688	4,99962664	0,000746422913	0,00178724318	0,00150100747	4	13	0,00929323398	3,02221054E-007	1,30145136E-005	2,98028262E-005	3,25205474E-005	66,4097214
99,9040375	269037,813	424309,781	502414,313	-57,6228561	66775,1693	4,99961185	0,000671474321	0,00375451683	0,00267791096	4	14	0,00943668839	1,87826821E-008	1,06583332E-006	1,68096642E-006	1,99038914E-006	57,6228561
3,16039586	1663739,13	738728,188	1820370,13	-23,9420261	66779,3516	4,99963093	0,000622910215	0,0681701079	0,0112264883	4	14	0,00943482853	5,18291765E-009	5,02071828E-007	2,22928335E-007	5,49338836E-007	23,9420261
146777,328	1392,01599	2771,04443	3101,03149	-63,3276367	88524,1206	4,99961996	0,000421826058	0,000391307054	0,000312458462	5	12	0,0108305514	3,49256402E-006	0,00014475442	0,000288158335	0,000322473352	63,3276367
4642,42725	10139,3291	20733,5117	23079,959	-63,9399338	88527,2914	4,99963522	0,000307525799	0,00165349222	0,00133437477	5	13	0,00909566227	3,94093519E-007	1,90343999E-005	3,89226843E-005	4,33276327E-005	63,9399338
146,737289	134364,875	388203,844	410799,406	-70,9082718	88531,5894	4,99964285	0,000293658086	0,00279395748	0,00249505346	5	14	0,00943465065	2,29665638E-008	7,96207246E-007	2,30038336E-006	2,43427803E-006	70,9082718
4,63925123	2974843,5	1377614,88	3278340,5	-24,848299	88535,5293	4,99964142	0,000289212767	0,024902584	0,00439735921	5	14	0,00943148974	2,87690982E-009	2,76793571E-007	1,28179849E-007	3,05032387E-007	24,848299
215441,859	926,793335	2141,92554	2333,83618	-66,6022644	110262,8134	4,99961615	0,000429671403	0,000344894012	0,000290505035	6	12	0,0109614702	4,6967607E-006	0,000170154017	0,000393245369	0,000428479078	66,6022644
6856,00244	8738,87988	15361,7969	17673,5059	-60,3657112	110265,8481	4,99964476	0,000304503803	0,00151114841	0,00114168355	6	13	0,00989646278	5,5996037E-007	2,79775923E-005	4,91809151E-005	5,658187E-005	60,3657112
[...]
14672,8496	6600,44336	9192,41113	11316,6367	-54,3204498	153735,9987	4,99992657	0,000295904698	0,00117998431	0,000778574788	8	13	0,0100671053	8,89584555E-007	5,15392821E-005	7,17785515E-005	8,83654793E-005	54,3204498
464,553894	41949,4063	154757,25	160342	-74,833519	153740,2180	4,99996233	0,000288241048	0,00221377262	0,00206224597	8	14	0,0103235859	6,43847926E-008	1,6316659E-006	6,01944384E-006	6,23666892E-006	74,833519
14,6851501	1589215,13	1482773,88	2173527,75	-43,0155563	153744,2291	4,99996567	0,000281952147	0,00730914902	0,00340162404	8	14	0,0102766622	4,72810235E-009	3,36397136E-007	3,13866195E-007	4,60081537E-007	43,0155563
681286,5	289,892242	846,829834	895,074463	-71,1025696	177069,0337	5,00046349	0,000148768566	0,000275863451	0,000246926764	9	12	0,00934251584	1,04376968E-005	0,000361841405	0,00105700688	0,0011172255	71,1025696
21545,4082	5564,31836	7342,48828	9212,69629	-52,8442535	177072,1957	5,0003953	0,000107247375	0,00100605597	0,000639050442	9	13	0,010345309	1,12294038E-006	6,55599288E-005	8,65106849E-005	0,000108545857	52,8442535
681,089661	29947,7754	112679,68	116591,508	-75,1161346	177076,2785	5,00044727	0,00010638313	0,00207381602	0,001936991	9	14	0,0103673842	8,89205793E-008	2,20308198E-006	8,28918382E-006	8,57695431E-006	75,1161346
21,5220375	887577,5	1612797,75	1840899,38	-61,1745148	177080,2807	5,00044584	0,000106045991	0,00458518509	0,00351930223	9	14	0,010281777	5,58519231E-009	2,6190645E-007	4,75904528E-007	5,43212764E-007	61,1745148
1000024,25	117,554131	690,138672	700,078796	-80,3333511	200225,2307	5,00001669	0,00187805342	0,000230607417	0,000224105301	10	12	0,00473468518	6,76307445E-006	0,000239852408	0,00140812923	0,00142841064	80,3333511
31628,4121	4568,26416	6041,07178	7573,875	-52,9033928	200228,3927	4,99975967	0,000108007771	0,000832968799	0,000529932382	10	13	0,010402808	1,37351196E-006	7,9637015E-005	0,00010531197	0,000132032816	52,9033928
999,040405	22140,7539	80352,6641	83347,25	-74,5947342	200232,3401	4,99981499	0,000106574254	0,00198260788	0,00184270076	10	14	0,0104577178	1,25471658E-007	3,18720436E-006	1,156692E-005	1,19979959E-005	74,5947342
31,5869217	683342,813	1353848,5	1516530	-63,2180519	200236,3708	4,99982452	0,000106377724	0,00372171216	0,00296606659	10	14	0,0102834562	6,78091183E-009	2,9712325E-007	5,88664818E-007	6,59400087E-007	63,2180519
0,998529792	7800407	2753507,75	8272131	-19,4427986	200243,8219	4,99983501	0,000105436469	0,0578859001	0,00641372893	10	14	0,0102844769	1,24326816E-009	1,13994119E-007	4,02394029E-008	1,20887833E-007	19,4427986
46411,125	3604,66309	5026,1709	6185,14258	-54,3527107	223396,0182	4,99975395	0,000109757799	0,000682277081	0,000450542604	11	13	0,00962372031	1,55594159E-006	9,4224808E-005	0,000131382578	0,000161677759	54,3527107
1468,58972	17334,0078	57866,4609	60406,9141	-73,3243179	223399,8275	4,99979162	0,000106448264	0,00187280576	0,00171859399	11	14	0,0106275147	1,75932087E-007	4,75034994E-006	1,58581915E-005	1,6554397E-005	73,3243179
46,3802681	448764,719	1100737,88	1188702,5	-67,8195496	223403,8794	4,99979067	0,000106211395	0,00311747496	0,00267315679	11	14	0,0102809984	8,64892513E-009	3,17594072E-007	7,79000175E-007	8,41253382E-007	67,8195496
1,46630979	5724625	2551873,75	6267646,5	-24,0259418	223409,6276	4,99981499	0,000105596679	0,0425339043	0,00705090119	11	14	0,0102799842	1,64016656E-009	1,45726332E-007	6,49606235E-008	1,59549515E-007	24,0259418
0,998529792	6454330	2557038,75	6942393	-21,6121922	223411,7604	4,99982452	0,000105403866	0,0623335429	0,00845625438	11	14	0,0102793286	1,48066071E-009	1,33916089E-007	5,30540945E-008	1,44042545E-007	21,6121922