Folder: thesis/Experimentelles/Rohdaten/Batteriemessungen/AlteZelle/Studenten_Batterietests/LiCoO2_LATP_Li/PEIS_GCPL/ECLab-Export

Note: README.md
# thesis

Zusammenfassung
---------------
Es konnten die Festkörperelektrolytkeramiken LATP, LAGP, LTO und LLTO hergestellt,
mit XRD und MAS-NMR charakterisiert und zu Elektrodensuspensionen weiterverarbeitet
werden. Aus den Daten der MAS-NMR konnten dabei gegenüber der XRD keine Mehrinfor-
mationen gewonnen werden. Die mit den Suspensionen gegossenen und gestanzten Elektro-
denproben wurden mittels REM und EDX untersucht und als Kathode in Testzellen verbaut.
Mit diesen wurden Ladekennlinien erstellt und eine zyklischer Voltametrie durchgeführt. Aus
den Ladekennlinien konnten die Kapazitäten und der Grad der Lithiuminsertation in die
Materialen bestimmt werden. Die zyklische Voltametrie lieferte nicht-reaktive Spannungsbe-
reiche der Materialien.

Für ein noch besseres Verständnis der Lithiumbewegung und -insertation wurde eine in-situ
NMR-Testzelle konzipiert, konstruiert, gebaut und getestet. Für den Test kam dabei eine
Lithium-Schwefel-Zelle zum Einsatz, für welche ein Di?usionskoe?zient sowie ein Spektrum
vor und nach einer 90 minütigen Ladezeit aufgenommen worden ist.

Abstract
--------
The all solid state electrolyte ceramics LATP, LAGP, LTO, and LLTO were successfully
synthesized and characterized by using XRD. MAS-NMR spectroscopy were not able to ge-
nerate additional information. All powders were processed to electrode slurries, casted on
aluminum foils and punched to electrode samples. Those samples were studied by SEM and
EDX and then build into battery test cells. The cells were analyzed by measuring the charge
curves as well as cyclic voltammetry. With the charge curves capacities and the amount of
lithium insertion were calculated. The cyclic voltammetry was able to detect non-reactive
voltage regions.

To be able to better understand lithium movement and insertion a novel in-situ NMR sample
cell was designed, constructed, built and tested. Therefore, a lithium-sulfur-cell was built into
the in-situ sample cell. With this setting a diffusion coeffcient as well as a NMR spectrum
before and after 90 minutes of charging were measured.

File: LiCoO2_LATP_Li_02_PEIS_C02.mpt
EC-Lab ASCII FILE
Nb header lines : 68

Potentio Electrochemical Impedance Spectroscopy

Run on channel : 2 (SN 6986)
Grouped channel(s) : 2
User :
CE vs. WE compliance from -10 V to 10 V
Electrode connection : standard
Ewe ctrl range : min = -10,00 V, max = 10,00 V
Acquisition started on : 02.12.2015 14:59:29
Saved on :
	File : LiCoO2_LATP_Li_02_PEIS_C02.mpr
	Directory : C:\Hupfer\Studenten Batterietests\LiCoO2_LATP_Li\PEIS_GCPL\
	Host : 192.168.0.2
Device : VMP3 (SN 0324)
Address : 192.168.0.1
EC-Lab for windows v10.33 (software)
Internet server v10.33 (firmware)
Command interpretor v10.32 (firmware)
Electrode material :
Initial state :
Electrolyte :
Comments :
Mass of active material : 0,001 mg
 at x = 0,000
Molecular weight of active material (at x = 0) : 0,001 g/mol
Atomic weight of intercalated ion : 0,001 g/mol
Acquisition started at : xo = 0,000
Number of e- transfered per intercalated ion : 1
for DX = 1, DQ = 26,801 mA.h
Battery capacity : 0,000 A.h
Electrode surface area : 0,001 cm²
Characteristic mass : 0,001 g
Multi Sine          0
E (V)               0,0000
vs.                 Eoc
tE (h:m:s)          0:00:0,0000
record              0
dI                  0,000
unit dI             mA
dt (s)              0,000
fi                  1,000
unit fi             MHz
ff                  1,000
unit ff             Hz
Sel Nd              1
Nd                  6
Nt                  51
Log                 1
Va (mV)             10,0
pw                  0,10
Na                  1
E range min (V)     -10,000
E range max (V)     10,000
I Range             Auto
Bandwidth           5
corr                0
nc cycles           0
goto Ns'            0
nr cycles           0
inc. cycle          0

Number of loops : 1
Loop 0 from point number 0 to 36

freq/Hz	Re(Z)/Ohm	-Im(Z)/Ohm	|Z|/Ohm	Phase(Z)/deg	time/s	<Ewe>/V	<I>/mA	Cs/µF	Cp/µF	cycle number	I Range	|Ewe|/V	|I|/A	Re(Y)/Ohm-1	Im(Y)/Ohm-1	|Y|/Ohm-1	Phase(Y)/deg
1000024,25	99,3281097	645,897461	653,490295	-81,25737	602,1442	1,46421945	0,00113282364	0,000246403011	0,000240710433	1	12	0,00448510563	6,86330895E-006	0,000232591439	0,00151246483	0,0015302446	81,25737
681286,5	301,961731	878,727356	929,162354	-71,0354691	602,3562	1,46375	0,000131512628	0,000265849696	0,000237772299	1	12	0,0103670703	1,11574373E-005	0,000349758891	0,00101781997	0,00107623823	71,0354691
464160,125	420,339905	1189,77405	1261,84302	-70,5419922	602,6702	1,4637363	0,000132183399	0,000288195908	0,00025621595	1	12	0,0102418149	8,11655264E-006	0,000263991562	0,000747229147	0,000792491599	70,5419922
316223,094	617,317139	1636,69299	1749,24109	-69,3348541	602,8822	1,46371603	0,000123611244	0,000307510083	0,000269212003	1	12	0,0109861242	6,28050884E-006	0,000201747898	0,000534894178	0,000571676472	69,3348541
215441,859	931,711792	2193,72949	2383,38745	-66,9882965	603,0942	1,46369064	0,000136096613	0,000336749508	0,000285288203	1	12	0,0109681692	4,6019245E-006	0,000164018289	0,000386183558	0,00041957089	66,9882965
146777,328	1416,75293	2841,57642	3175,17651	-63,5000763	603,3062	1,46369612	0,000130077489	0,000381594262	0,000305622088	1	12	0,0108213266	3,40810243E-006	0,00014052655	0,000281853601	0,000314943114	63,5000763
100024,406	2018,95068	3600,19336	4127,65723	-60,7167473	603,5182	1,46387982	0,000140867109	0,000441965443	0,000336227124	1	12	0,0105791483	2,56299109E-006	0,000118500029	0,000211309278	0,000242268172	60,7167473
68127,4297	2812,26318	4340,20996	5171,67725	-57,0585518	603,9642	1,46366966	1,0543441E-005	0,000538254157	0,000379093253	1	13	0,00957130268	1,85071542E-006	0,0001051461	0,000162273602	0,000193360873	57,0585518
46411,125	3770,89844	5314,04492	6516,0376	-54,6401138	604,1762	1,46366227	1,07298019E-005	0,000645316613	0,000429196429	1	13	0,0104806535	1,60843967E-006	8,88132272E-005	0,000125157836	0,000153467496	54,6401138
31628,4121	4852,91895	6355,80859	7996,69482	-52,6367912	604,3882	1,46367455	1,10037572E-005	0,00079172058	0,000500141061	1	13	0,0105705978	1,32187085E-006	7,58895549E-005	9,93916256E-005	0,000125051665	52,6367912
21545,4082	5952,48535	7729,07471	9755,5459	-52,3986206	604,6002	1,46367168	1,21145222E-005	0,000955735857	0,000599915045	1	13	0,0103308707	1,05897414E-006	6,25453686E-005	8,12127764E-005	0,000102505794	52,3986206
14672,8496	7083,68066	9495,92188	11846,9854	-53,2781372	604,8122	1,46365929	9,3953704E-006	0,00114226935	0,000733883469	1	13	0,00999702234	8,43845271E-007	5,04711534E-005	6,76583513E-005	8,44096576E-005	53,2781372
10015,2705	8134,875	12036,7246	14527,8672	-55,9476814	604,9446	1,46369588	1,18256376E-005	0,00132022856	0,000906279252	1	13	0,00994828157	6,84772317E-007	3,85431449E-005	5,70301636E-005	6,88332293E-005	55,9476814
6856,00244	9170,97461	15581,7344	18080,2988	-59,5201187	605,1286	1,46372604	1,1460349E-005	0,00148981845	0,00110650586	1	13	0,00974816829	5,39159714E-007	2,80546137E-005	4,76655478E-005	5,53088212E-005	59,5201187
4642,42725	10679,5957	21007,9551	23566,6699	-63,0530548	605,5800	1,46371353	1,18330854E-005	0,00163189135	0,0012967682	1	13	0,00990818907	4,20432286E-007	1,92290754E-005	3,78257319E-005	4,243281E-005	63,0530548
3160,05566	12245,2041	29045,9395	31521,6055	-67,1406555	605,8158	1,46371365	1,03244129E-005	0,00173396361	0,00147229282	1	13	0,0101369703	3,21588004E-007	1,23239352E-005	2,92326895E-005	3,17242739E-005	67,1406555
2152,93286	14674,1826	40137,3477	42735,6797	-69,9176254	606,2975	1,463714	2,24023051E-006	0,00184179365	0,00162463973	1	14	0,0109012099	2,55084501E-007	8,03475632E-006	2,19769499E-005	2,33996507E-005	69,9176254
1468,58972	17704,8652	55980,8086	58713,8242	-72,4495697	606,5334	1,46370113	2,17910065E-006	0,00193588925	0,00175985997	1	14	0,0106293261	1,81036171E-007	5,13584519E-006	1,62389679E-005	1,70317635E-005	72,4495697
999,040405	22055,7344	78522,6875	81561,4375	-74,3108215	606,7694	1,46371329	2,29259717E-006	0,00202881265	0,00188045308	1	14	0,0104620317	1,28271793E-007	3,31552042E-006	1,1803897E-005	1,22606962E-005	74,3108215
681,089661	28487,6328	110484,195	114097,773	-75,5415802	607,0048	1,46370673	2,36779556E-006	0,00211502588	0,00198317785	1	14	0,0103678219	9,08678714E-008	2,1882754E-006	8,48683612E-006	8,764413E-006	75,5415802
464,553894	39292,9063	153425,406	158377,047	-75,6350555	607,2414	1,46371114	2,28467502E-006	0,00223298976	0,00209554425	1	14	0,0103294915	6,52208882E-008	1,56649742E-006	6,11663882E-006	6,31404646E-006	75,6350555
316,315765	56397,4023	218343,719	225509,75	-75,5172501	607,4763	1,46370959	1,61039577E-006	0,00230440381	0,00216027652	1	14	0,0103008859	4,56782274E-008	1,10899191E-006	4,29348574E-006	4,43439785E-006	75,5172501
215,344498	81821,3594	302991,75	313845,094	-74,888031	607,7128	1,46371281	2,34151639E-006	0,00243924558	0,0022734555	1	14	0,0102885664	3,27823066E-008	8,30684314E-007	3,07609776E-006	3,18628531E-006	74,888031
146,737289	113227,336	427809,531	442539,75	-75,1755676	607,9466	1,46372008	2,35521429E-006	0,00253529893	0,0023693298	1	14	0,0102898721	2,32518591E-008	5,78158222E-007	2,18446894E-006	2,25968392E-006	75,1755676
99,9040375	181956,297	589734,813	617167,125	-72,8529587	608,1824	1,46371794	1,93868232E-006	0,00270134676	0,00246654078	1	14	0,0102817072	1,66595182E-008	4,77706863E-007	1,54828604E-006	1,62030665E-006	72,8529587
68,1888962	298083,094	802183,125	855775,25	-69,615448	608,4241	1,46372068	2,11964516E-006	0,00290959771	0,00255658687	1	14	0,0102831516	1,20161827E-008	4,07021957E-007	1,0953529E-006	1,16853107E-006	69,615448
46,3802681	292798,344	1117282,88	1155011,63	-75,3151321	608,6536	1,4637115	2,4626554E-006	0,00307131023	0,00287393737	1	14	0,0102837151	8,90355967E-009	2,19480455E-007	8,37510868E-007	8,65792174E-007	75,3151321
31,5869217	609161,5	1377060,63	1505780,13	-66,137146	608,8782	1,46371126	1,93700498E-006	0,00365897757	0,00306015043	1	14	0,0102792075	6,82649937E-009	2,68663911E-007	6,07337256E-007	6,64107574E-007	66,137146
21,5220375	811391,125	2055904,75	2210226,25	-68,4626465	609,0996	1,46371615	2,09951736E-006	0,00359694497	0,00311219133	1	14	0,0102800317	4,65112171E-009	1,66095091E-007	4,20852132E-007	4,52442379E-007	68,4626465
14,6851501	1588515,38	2321348	2812834,5	-55,6158791	609,3409	1,46371663	2,18850823E-006	0,00466875965	0,00317975483	1	14	0,0102795735	3,6545249E-009	2,00771964E-007	2,93394436E-007	3,55513265E-007	55,6158791
9,9904108	2007543,5	2491672	3199790,75	-51,1415596	609,5774	1,46371233	2,51632923E-006	0,00639360631	0,00387689914	1	14	0,0102812061	3,21308713E-009	1,96074808E-007	2,43359182E-007	3,12520427E-007	51,1415596
6,81718969	1915993,5	3377007,75	3882681	-60,4309731	609,7545	1,46372032	1,73610067E-006	0,00691325683	0,00522977952	1	14	0,0102794245	2,64750688E-009	1,27095632E-007	2,24010634E-007	2,57554007E-007	60,4309731
4,63925123	3280275,75	2499085	4123789	-37,3020401	610,0083	1,46372283	1,68643294E-006	0,0137274936	0,00504150754	1	14	0,010278794	2,4925606E-009	1,92893467E-007	1,46956296E-007	2,42495446E-007	37,3020401
3,16039586	4950275	3870091,75	6283536,5	-38,0180588	610,3733	1,46372271	2,1168496E-006	0,0130123999	0,00493618706	1	14	0,010278468	1,63577751E-009	1,25377909E-007	9,80196191E-008	1,59146055E-007	38,0180588
2,1522038	6240940	2279915,5	6644347	-20,068058	610,8993	1,46372211	1,93897995E-006	0,0324353054	0,00381901069	1	14	0,0102788471	1,54700641E-009	1,41366144E-007	5,16433154E-008	1,5050388E-007	20,068058
1,46630979	6113479	1627072,63	6326293,5	-14,9035158	611,6644	1,46372747	1,98245448E-006	0,0667094663	0,00441268273	1	14	0,0102794906	1,62488367E-009	1,52752989E-007	4,06544665E-008	1,58070435E-007	14,9035158
0,998529792	7025210,5	1868307,5	7269398,5	-14,8927155	612,7807	1,46372795	1,85905606E-006	0,0853121206	0,00563521544	1	14	0,0102815377	1,41435874E-009	1,32942048E-007	3,53550469E-008	1,37562964E-007	14,8927155

File: LiCoO2_LATP_Li_05_OCV_C02.mpt
EC-Lab ASCII FILE
Nb header lines : 46

Open Circuit Voltage

Run on channel : 2 (SN 6986)
Grouped channel(s) : 2
User :
CE vs. WE compliance from -10 V to 10 V
Electrode connection : standard
Ewe ctrl range : min = -10,00 V, max = 10,00 V
Acquisition started on : 02.12.2015 14:59:29
Saved on :
	File : LiCoO2_LATP_Li_05_OCV_C02.mpr
	Directory : C:\Hupfer\Studenten Batterietests\LiCoO2_LATP_Li\PEIS_GCPL\
	Host : 192.168.0.2
Device : VMP3 (SN 0324)
Address : 192.168.0.1
EC-Lab for windows v10.33 (software)
Internet server v10.33 (firmware)
Command interpretor v10.32 (firmware)
Electrode material :
Initial state :
Electrolyte :
Comments :
Mass of active material : 0,001 mg
 at x = 0,000
Molecular weight of active material (at x = 0) : 0,001 g/mol
Atomic weight of intercalated ion : 0,001 g/mol
Acquisition started at : xo = 0,000
Number of e- transfered per intercalated ion : 1
for DX = 1, DQ = 26,801 mA.h
Battery capacity : 0,000 A.h
Electrode surface area : 0,001 cm²
Characteristic mass : 0,001 g
tR (h:m:s)          0:10:30,0000
dER/dt (mV/h)       0,0
dER (mV)            0,00
dtR (s)             5,0000
E range min (V)     -10,000
E range max (V)     10,000

Number of loops : 1
Loop 0 from point number 0 to 126

mode	error	time/s	Ewe/V
3	0	1212,9682	1,9533608
3	0	1217,9682	1,67080772
3	0	1222,9682	1,66970146
3	0	1227,9682	1,66964424
3	0	1232,9682	1,67033088
3	0	1237,9682	1,671399
3	0	1242,9682	1,67260063
3	0	1247,9682	1,67378318
3	0	1252,9682	1,67528999
3	0	1257,9682	1,67662513
3	0	1262,9682	1,67763603
3	0	1267,9682	1,67902839
3	0	1272,9682	1,68061149
3	0	1277,9682	1,6823281
3	0	1282,9682	1,6837014
3	0	1287,9682	1,68507469
3	0	1292,9682	1,6861428
3	0	1297,9682	1,68700111
3	0	1302,9682	1,68791652
3	0	1307,9682	1,68860316
3	0	1312,9682	1,68908
3	0	1317,9682	1,68955684
3	0	1322,9682	1,69012904
3	0	1327,9682	1,69054866
3	0	1332,9682	1,6915977
3	0	1337,9682	1,69283748
3	0	1342,9682	1,6946876
3	0	1347,9682	1,69659495
3	0	1352,9682	1,69813991
3	0	1357,9682	1,69953227
3	0	1362,9682	1,70086741
3	0	1367,9682	1,70227885
3	0	1372,9682	1,70336604
3	0	1377,9682	1,70374751
3	0	1382,9682	1,70346141
3	0	1387,9682	1,7035377
3	0	1392,9682	1,70386195
3	0	1397,9682	1,70504451
3	0	1402,9682	1,70681834
3	0	1407,9682	1,70914519
3	0	1412,9682	1,71091902
3	0	1417,9682	1,7118727
3	0	1422,9682	1,71217787
3	0	1427,9682	1,71202528
3	0	1432,9682	1,71242583
3	0	1437,9682	1,71301711
3	0	1442,9682	1,71351302
3	0	1447,9682	1,71446669
3	0	1452,9682	1,71572554
3	0	1457,9682	1,71728957
3	0	1462,9682	1,71925414
3	0	1467,9682	1,72095168
3	0	1472,9682	1,72247756
3	0	1477,9682	1,72285903
3	0	1482,9682	1,72234404
3	0	1487,9682	1,72245848
3	0	1492,9682	1,7228018
3	0	1497,9682	1,72398436
3	0	1502,9682	1,72520506
3	0	1507,9682	1,72753203
3	0	1512,9682	1,72945833
3	0	1517,9682	1,73081255
3	0	1522,9682	1,73130846
3	0	1527,9682	1,73102236
3	0	1532,9682	1,73121309
3	0	1537,9682	1,7314229
3	0	1542,9682	1,73209047
3	0	1547,9682	1,73325396
3	0	1552,9682	1,73500872
3	0	1557,9682	1,73704958
3	0	1562,9682	1,73855639
3	0	1567,9682	1,73985338
3	0	1572,9682	1,7409215
3	0	1577,9682	1,74183702
3	0	1582,9682	1,74237108
3	0	1587,9682	1,74239016
3	0	1592,9682	1,74254274
3	0	1597,9682	1,74290514
3	0	1602,9682	1,74366808
3	0	1607,9682	1,74456453
3	0	1612,9682	1,7455945
3	0	1617,9682	1,74692965
3	0	1622,9682	1,74824572
3	0	1627,9682	1,74939001
3	0	1632,9682	1,75074422
3	0	1637,9682	1,75190771
3	0	1642,9682	1,75288045
3	0	1647,9682	1,75446355
3	0	1652,9682	1,7551502
3	0	1657,9682	1,75621831
3	0	1662,9682	1,75705755
3	0	1667,9682	1,75761068
3	0	1672,9682	1,75873601
3	0	1677,9682	1,75907934
3	0	1682,9682	1,75968969
3	0	1687,9682	1,76028097
3	0	1692,9682	1,76115835
3	0	1697,9682	1,76207387
3	0	1702,9682	1,7627033
3	0	1707,9682	1,76333272
3	0	1712,9682	1,76394308
3	0	1717,9682	1,76419103
3	0	1722,9682	1,76453435
3	0	1727,9682	1,76487768
3	0	1732,9682	1,76554525
3	0	1737,9682	1,76588857
3	0	1742,9682	1,76674688
3	0	1747,9682	1,76747167
3	0	1752,9682	1,76825368
3	0	1757,9682	1,76928365
3	0	1762,9682	1,77035165
3	0	1767,9682	1,77185845
3	0	1772,9682	1,77298379
3	0	1777,9682	1,7741282
3	0	1782,9682	1,77491021
3	0	1787,9682	1,77567315
3	0	1792,9682	1,77632165
3	0	1797,9682	1,77689385
3	0	1802,9682	1,77746606
3	0	1807,9682	1,77784753
3	0	1812,9682	1,77798104
3	0	1817,9682	1,77834344
3	0	1822,9682	1,77950692
3	0	1827,9682	1,78133798
3	0	1832,9682	1,78324533
3	0	1837,9682	1,7845614
3	0	1842,9682	1,785496