Folder: thesis/Experimentelles/Rohdaten/Batteriemessungen/AlteZelle/Studenten_Batterietests/LiCoO2_LATP_Li/PEIS_GCPL/ZView-Export

Note: Experimentelles/Rohdaten/Batteriemessungen/AlteZelle/Studenten_Batterietests/LiCoO2_LATP_Li/PEIS_GCPL/ZView-Export/LiCoO2_LATP_Li_09_PEIS_C02.txt
1000024,25	190,501907	-646,661133
681286,5	292,015656	-844,530212
464160,125	409,509857	-1151,84167
316223,094	608,756531	-1578,58447
215441,859	916,385925	-2114,61792
146777,328	1373,47961	-2745,26245
100024,406	2044,03796	-3460,0105
68127,4297	2754,71924	-4223,55615
46411,125	3595,10522	-5013,76074
31628,4121	4535,82813	-6044,79053
21545,4082	5500,41504	-7364,59619
14672,8496	6439,83105	-9197,96875
10015,2705	7361,35742	-11814,7393
6856,00244	8387,84863	-15705,6719
4642,42725	9693,33203	-21559,1758
3160,05566	11240,7109	-29769,2715
2152,93286	13851,8203	-41458,9102
1468,58972	17088,1191	-57984,3906
999,040405	21952,5137	-81891,1016
681,089661	30103,7324	-114161,414
464,553894	41543,2617	-159606,094
316,315765	58460,832	-220175,063
215,344498	88967,6797	-307632,594
146,737289	125748,563	-420217,156
99,9040375	195763,453	-581508,688
68,1888962	307524,781	-729892,25
46,3802681	526754,938	-1047124,44
31,5869217	668338,813	-1362847,88
21,5220375	924864,063	-1740442
14,6851501	1536227,5	-1904002,88
9,9904108	1836989,25	-2337607,5
6,81718969	2637542,5	-3259227,5
4,63925123	3316750,5	-3349319,5
3,16039586	3734810,25	-4084230,75
2,1522038	4388798,5	-3778843
1,46630979	5663832,5	-3995840
0,998529792	8185244	-4021688,5

Note: README.md
# thesis

Zusammenfassung
---------------
Es konnten die Festkörperelektrolytkeramiken LATP, LAGP, LTO und LLTO hergestellt,
mit XRD und MAS-NMR charakterisiert und zu Elektrodensuspensionen weiterverarbeitet
werden. Aus den Daten der MAS-NMR konnten dabei gegenüber der XRD keine Mehrinfor-
mationen gewonnen werden. Die mit den Suspensionen gegossenen und gestanzten Elektro-
denproben wurden mittels REM und EDX untersucht und als Kathode in Testzellen verbaut.
Mit diesen wurden Ladekennlinien erstellt und eine zyklischer Voltametrie durchgeführt. Aus
den Ladekennlinien konnten die Kapazitäten und der Grad der Lithiuminsertation in die
Materialen bestimmt werden. Die zyklische Voltametrie lieferte nicht-reaktive Spannungsbe-
reiche der Materialien.

Für ein noch besseres Verständnis der Lithiumbewegung und -insertation wurde eine in-situ
NMR-Testzelle konzipiert, konstruiert, gebaut und getestet. Für den Test kam dabei eine
Lithium-Schwefel-Zelle zum Einsatz, für welche ein Di?usionskoe?zient sowie ein Spektrum
vor und nach einer 90 minütigen Ladezeit aufgenommen worden ist.

Abstract
--------
The all solid state electrolyte ceramics LATP, LAGP, LTO, and LLTO were successfully
synthesized and characterized by using XRD. MAS-NMR spectroscopy were not able to ge-
nerate additional information. All powders were processed to electrode slurries, casted on
aluminum foils and punched to electrode samples. Those samples were studied by SEM and
EDX and then build into battery test cells. The cells were analyzed by measuring the charge
curves as well as cyclic voltammetry. With the charge curves capacities and the amount of
lithium insertion were calculated. The cyclic voltammetry was able to detect non-reactive
voltage regions.

To be able to better understand lithium movement and insertion a novel in-situ NMR sample
cell was designed, constructed, built and tested. Therefore, a lithium-sulfur-cell was built into
the in-situ sample cell. With this setting a diffusion coeffcient as well as a NMR spectrum
before and after 90 minutes of charging were measured.

File: LiCoO2_LATP_Li_03_OCV_C02.txt
EC-Lab ASCII FILE
Nb header lines : 46

Open Circuit Voltage

Run on channel : 2 (SN 6986)
Grouped channel(s) : 2
User :
CE vs. WE compliance from -10 V to 10 V
Electrode connection : standard
Ewe ctrl range : min = -10,00 V, max = 10,00 V
Acquisition started on : 02.12.2015 14:59:29
Saved on :
	File : LiCoO2_LATP_Li_03_OCV_C02.mpr
	Directory : C:\Hupfer\Studenten Batterietests\LiCoO2_LATP_Li\PEIS_GCPL\
	Host : 192.168.0.2
Device : VMP3 (SN 0324)
Address : 192.168.0.1
EC-Lab for windows v10.33 (software)
Internet server v10.33 (firmware)
Command interpretor v10.32 (firmware)
Electrode material :
Initial state :
Electrolyte :
Comments :
Mass of active material : 0,001 mg
 at x = 0,000
Molecular weight of active material (at x = 0) : 0,001 g/mol
Atomic weight of intercalated ion : 0,001 g/mol
Acquisition started at : xo = 0,000
Number of e- transfered per intercalated ion : 1
for DX = 1, DQ = 26,801 mA.h
Battery capacity : 0,000 A.h
Electrode surface area : 0,001 cm²
Characteristic mass : 0,001 g
tR (h:m:s)          0:10:0,0000
dER/dt (mV/h)       0,0
dER (mV)            0,00
dtR (s)             5,0000
E range min (V)     -10,000
E range max (V)     10,000

Number of loops : 1
Loop 0 from point number 0 to 120

mode	error	time/s	Ewe/V
3	0	612,8440	1,46633637
3	0	617,8440	1,46935475
3	0	622,8440	1,47309315
3	0	627,8440	1,47624028
3	0	632,8440	1,47906315
3	0	637,8440	1,481619
3	0	642,8440	1,48430824
3	0	647,8440	1,48629189
3	0	652,8440	1,48804665
3	0	657,8440	1,48917198
3	0	662,8440	1,49069786
3	0	667,8440	1,49287224
3	0	672,8440	1,49506569
3	0	677,8440	1,49746895
3	0	682,8440	1,50015831
3	0	687,8440	1,50235176
3	0	692,8440	1,50423992
3	0	697,8440	1,50628078
3	0	702,8440	1,50879848
3	0	707,8440	1,51152599
3	0	712,8440	1,51379573
3	0	717,8440	1,51587474
3	0	722,8440	1,51774395
3	0	727,8440	1,51963222
3	0	732,8440	1,52117717
3	0	737,8440	1,52340877
3	0	742,8440	1,52554488
3	0	747,8440	1,52785277
3	0	752,8440	1,52987456
3	0	757,8440	1,53191543
3	0	762,8440	1,53378463
3	0	767,8440	1,53548217
3	0	772,8440	1,53691268
3	0	777,8440	1,53815246
3	0	782,8440	1,53958297
3	0	787,8440	1,54116607
3	0	792,8440	1,54295897
3	0	797,8440	1,54484713
3	0	802,8440	1,54723132
3	0	807,8440	1,54988253
3	0	812,8440	1,55188525
3	0	817,8440	1,55409777
3	0	822,8440	1,55610049
3	0	827,8440	1,55793154
3	0	832,8440	1,55980074
3	0	837,8440	1,5606972
3	0	842,8440	1,56144106
3	0	847,8440	1,56247103
3	0	852,8440	1,56367266
3	0	857,8440	1,56546545
3	0	862,8440	1,56825018
3	0	867,8440	1,5711112
3	0	872,8440	1,57341909
3	0	877,8440	1,57517385
3	0	882,8440	1,57580328
3	0	887,8440	1,5761466
3	0	892,8440	1,57683325
3	0	897,8440	1,57870245
3	0	902,8440	1,5815444
3	0	907,8440	1,58425283
3	0	912,8440	1,58661783
3	0	917,8440	1,5885061
3	0	922,8440	1,58978403
3	0	927,8440	1,59050882
3	0	932,8440	1,59129083
3	0	937,8440	1,59239709
3	0	942,8440	1,59317911
3	0	947,8440	1,5945524
3	0	952,8440	1,5961355
3	0	957,8440	1,59766138
3	0	962,8440	1,59920633
3	0	967,8440	1,60075128
3	0	972,8440	1,60265863
3	0	977,8440	1,60471857
3	0	982,8440	1,60729337
3	0	987,8440	1,60920072
3	0	992,8440	1,61105084
3	0	997,8440	1,61192822
3	0	1002,8440	1,61278653
3	0	1007,8440	1,61372113
3	0	1012,8440	1,61517072
3	0	1017,8440	1,61625791
3	0	1022,8440	1,61742139
3	0	1027,8440	1,61814618
3	0	1032,8440	1,61909986
3	0	1037,8440	1,62053037
3	0	1042,8440	1,62224698
3	0	1047,8440	1,62472653
3	0	1052,8440	1,62724411
3	0	1057,8440	1,62949479
3	0	1062,8440	1,63018143
3	0	1067,8440	1,63058197
3	0	1072,8440	1,63102067
3	0	1077,8440	1,63161194
3	0	1082,8440	1,63281357
3	0	1087,8440	1,63433945
3	0	1092,8440	1,63632309
3	0	1097,8440	1,63853562
3	0	1102,8440	1,64051926
3	0	1107,8440	1,64261734
3	0	1112,8440	1,64338028
3	0	1117,8440	1,64376175
3	0	1122,8440	1,64372361
3	0	1127,8440	1,64435303
3	0	1132,8440	1,64532578
3	0	1137,8440	1,64685154
3	0	1142,8440	1,6482439
3	0	1147,8440	1,65034199
3	0	1152,8440	1,65236378
3	0	1157,8440	1,65436649
3	0	1162,8440	1,65617847
3	0	1167,8440	1,65707493
3	0	1172,8440	1,65722752
3	0	1177,8440	1,65732288
3	0	1182,8440	1,65781879
3	0	1187,8440	1,65894413
3	0	1192,8440	1,66035557
3	0	1197,8440	1,66197681
3	0	1202,8440	1,6639986
3	0	1207,8440	1,66621113
3	0	1212,8440	1,66809928