Folder: thesis/Experimentelles/Rohdaten/Batteriemessungen/AlteZelle/Studenten_Batterietests/Sonstige/ECLab-Export (part 3)

File: S vs Li_05_GCPL_C02_loop3.mpt
EC-Lab ASCII FILE
Nb header lines : 3
mode	ox/red	error	control changes	Ns changes	counter inc.	Ns	time/s	control/V/mA	Ewe/V	dq/mA.h	<I>/mA	P/W	(Q-Qo)/mA.h	x	Capacity/mA.h
1	0	0	1	1	0	1	211904,02	-0,100000001	2,41948175	0	0	0	0	0	0
1	0	0	1	0	0	1	212994,02	-0,100000001	2,14484429	-0,00027770788217542899	-0,099974821940874586	0,000214430431	-0,030268851767024819	0,0011293715563317286	0,030268851767024819
1	0	0	1	0	0	1	214084,02	-0,100000001	2,11774111	-0,000277707186696844	-0,099974571568623181	0,000211720253	-0,060539019413314522	0,0022587922098880486	0,060539019413314522
1	0	0	1	0	0	1	215174,02	-0,100000001	2,09727526	-0,00027770778722978301	-0,099974787760447398	0,000209674647	-0,090809162642671181	0,0033882119524157677	0,090809162642671181
1	0	0	1	0	0	1	216264,02	-0,100000001	2,06757808	-0,00027770841047374739	-0,09997501212823945	0,000206706143	-0,12107941061116608	0,0045176356029015578	0,12107941061116608
1	0	0	1	0	0	1	217354,02	-0,100000001	2,02655125	-0,00027770679359924461	-0,09997443005350953	0,000202603303	-0,151349569500776	0,0056470559297343814	0,151349569500776
1	0	0	1	0	0	1	218444,02	-0,100000001	1,9912082	-0,00027770763803935712	-0,099974734051902477	0,000199070506	-0,18161962703959578	0,0067764724750329574	0,18161962703959578
1	0	0	1	0	0	1	219534,02	-0,100000001	1,9740231	-0,00027770705646069514	-0,099974524683616922	0,000197352027	-0,21188967988214442	0,0079058888451073434	0,21188967988214442
1	0	0	1	0	0	1	220624,02	-0,100000001	1,96482968	-0,0002777065987566279	-0,099974359910178483	0,000196432593	-0,24215973780684214	0,009035305404803543	0,24215973780684214
1	0	0	1	0	0	1	221714,02	-0,100000001	1,96349454	-0,00027770526039558979	-0,099973878100280166	0,000196298162	-0,27242969359199875	0,010164718153536138	0,27242969359199875
1	0	0	1	0	0	1	222804,02	-0,100000001	1,96095777	-0,00027770718427085213	-0,099974570695266227	0,000196045905	-0,30269967553705914	0,011294131878329912	0,30269967553705914
1	0	0	1	0	0	1	223894,02	-0,100000001	1,9624455	-0,0002777075503704449	-0,099974702491099008	0,000196194902	-0,33296978143122566	0,012423550227831491	0,33296978143122566
1	0	0	1	0	0	1	224984,02	-0,100000001	1,95889783	-0,00027770704042870138	-0,09997451891210007	0,000195839864	-0,36323982046711834	0,013552966082760981	0,36323982046711834
1	0	0	1	0	0	1	226074,02	-0,100000001	1,95609403	-0,00027770677986534106	-0,099974425109305024	0,000195559376	-0,39350979708982675	0,014682379608970646	0,39350979708982675
1	0	0	1	0	0	1	227164,02	-0,100000001	1,95050561	-0,00027770642308601075	-0,099974296668766208	0,000195000423	-0,42377983575559014	0,015811795450090115	0,42377983575559014
1	0	0	1	0	0	1	228254,02	-0,100000001	1,94436395	-0,00027770597850076029	-0,099974136618101094	0,000194386113	-0,45404982955312045	0,016941209617115478	0,45404982955312045
1	0	0	1	0	0	1	229344,02	-0,100000001	1,9371351	-0,00027770559084622394	-0,099973997062489843	0,000193663145	-0,4843198065956	0,018070623158987373	0,4843198065956
1	0	0	1	0	0	1	230434,03	-0,100000001	1,92962027	-0,00027770549282472998	-0,09997396177475753	0,000192911786	-0,51458973787903936	0,019200034993527955	0,51458973787903936
1	0	0	1	0	0	1	231524,03	-0,100000001	1,92242956	-0,00027770600761928493	-0,09997414710076832	0,000192193256	-0,54485966538108058	0,020329446686979485	0,54485966538108058
1	0	0	1	0	0	1	232614,03	-0,100000001	1,90947878	-0,00027770423592627046	-0,099973509291382912	0,000190897292	-0,57512955301339872	0,021458856892838045	0,57512955301339872
1	0	0	1	0	0	1	233704,03	-0,100000001	1,89971316	-0,00027770725577572982	-0,099974596437018189	0,000189923056	-0,60539949350552666	0,022588269070967178	0,60539949350552666
1	0	0	1	0	0	1	234794,03	-0,100000001	1,88716292	-0,00027770727576232621	-0,099974603632191744	0,00018866836	-0,63566953051107315	0,023717684850141715	0,63566953051107315
1	0	0	1	0	0	1	235884,03	-0,100000001	1,87344909	-0,00027770669528221088	-0,099974394659382938	0,000187296944	-0,665939531982304	0,024847099303483171	0,665939531982304
1	0	0	1	0	0	1	236974,03	-0,100000001	1,85166728	-0,00027770601169061328	-0,09997414856644631	0,000185118857	-0,69620944606961062	0,025976510496412915	0,69620944606961062
1	0	0	1	0	0	1	238064,03	-0,100000001	1,8135587	-0,00027770715470529267	-0,099974560051666496	0,000181309733	-0,72647944435470093	0,027105924830875174	0,72647944435470093
1	0	0	1	0	0	1	239154,03	-0,100000001	1,37416542	-0,00027770727075553603	-0,099974601829747571	0,000137381634	-0,75674945192202854	0,028235339511670195	0,75674945192202854
1	1	0	0	0	0	2	240225,27	0,100000001	2,45163941	0,00027780500880297686	0,10000978752132104	0,000245187926	-0,7742773727705737	0,028889329805069638	0,0061117158839325926
1	1	0	0	0	0	2	241315,27	0,100000001	2,42159891	0,00027780555523269706	0,10000998423598954	0,000242184062	-0,74399650346787098	0,027759509858324013	0,03639258518663504
1	1	0	0	0	0	2	242405,27	0,100000001	2,41976786	0,0002778065438105	0,10001034012394291	0,000242001814	-0,71371566119795635	0,026629690920208067	0,066673427456549082
1	1	0	0	0	0	2	243495,28	0,100000001	2,42627192	0,00027780628523478909	0,10001024703670154	0,000242652051	-0,68343477545495232	0,025499870360052701	0,096954313199553318
1	1	0	0	0	0	2	244585,28	0,100000001	2,42093134	0,00027780617629198563	0,10001020781729845	0,000242117851	-0,65315386243996544	0,024370048782342982	0,12723522621453978
1	1	0	0	0	0	2	245675,28	0,100000001	2,42798853	0,00027780721793903248	0,10001058281017664	0,00024282455	-0,62287293840135962	0,023240226793327226	0,15751615025314582
1	1	0	0	0	0	2	246765,28	0,100000001	2,43422556	0,00027780646629424557	0,10001031221809568	0,000243447663	-0,59259196667198989	0,022110403024904947	0,18779712198251498
1	1	0	0	0	0	2	247855,28	0,100000001	2,4364953	0,00027780610461988378	0,10001018201534582	0,000243674338	-0,56231102794905229	0,02098058048799703	0,21807806070545248
1	1	0	0	0	0	2	248945,28	0,100000001	2,43773508	0,00027780859765617382	0,10001107950826979	0,000243800518	-0,53203010399356301	0,019850758502082461	0,24835898466094182
1	1	0	0	0	0	2	250035,28	0,100000001	2,43857431	0,0002778069127363463	0,1000104729372268	0,000243882969	-0,50174914250248173	0,01872093511566449	0,27863994615202304
1	1	0	0	0	0	2	251125,28	0,100000001	2,44687104	0,00027780726679745645	0,1000106003992065	0,000244713039	-0,47146820494642182	0,017591112622294346	0,30892088370808294
1	1	0	0	0	0	2	252215,28	0,100000001	2,45089555	0,00027780625849796669	0,10001023741144699	0,000245114643	-0,44118731906114253	0,016461292056830496	0,33920176959336224
1	1	0	0	0	0	2	253305,28	0,100000001	2,45240235	0,00027780619185376499	0,10001021341953813	0,000245265284	-0,41090638221181933	0,015331469589829651	0,36948270644268544
1	1	0	0	0	0	2	254395,28	0,100000001	2,46195817	0,00027780670571699738	0,10001039841027285	0,000246221403	-0,38062544769080326	0,014201647209701074	0,39976364096370157
1	1	0	0	0	0	2	255485,28	0,100000001	2,46544862	0,00027780660110256736	0,10001036074908394	0,000246570416	-0,35034457489580096	0,013071827132653059	0,43004451375870381
1	1	0	0	0	0	2	256575,28	0,100000001	2,46487641	0,00027780652539390656	0,1000103334939703	0,000246513111	-0,32006366991961274	0,011942005854881733	0,4603254187348921
1	1	0	0	0	0	2	257665,28	0,100000001	2,47180009	0,00027780630216416387	0,1000102531312755	0,000247205346	-0,28978276191536205	0,010812184464129326	0,49060632673914272
1	1	0	0	0	0	2	258755,28	0,100000001	2,47702622	0,00027780677152011133	0,10001042209939018	0,000247728429	-0,25950185348736947	0,0096823630575665357	0,52088723516713517
1	1	0	0	0	0	2	259845,28	0,100000001	2,46859574	0,0002778067334170143	0,10001040838227738	0,000246885262	-0,22922090123030554	0,008552540015682167	0,55116818742419994
1	1	0	0	0	0	2	260935,28	0,100000001	2,48282456	0,00027780707485849661	0,10001053130119178	0,000248308614	-0,19893995442049254	0,0074227171770420531	0,58144913423401306
1	1	0	0	0	0	2	262025,28	0,100000001	2,49560356	0,0002778068300655319	0,10001044317573827	0,000249586417	-0,16865900128969792	0,0062928941025576166	0,6117300873648073
1	1	0	0	0	0	2	263115,30	0,100000001	2,51576424	0,0002778128410519825	0,10001069708194581	0,000251603342	-0,13837745932093254	0,0051630490577367898	0,64201162933357286
1	1	0	0	0	0	2	264205,32	0,100000001	2,52373695	0,00027781235188701091	0,10001052098594672	0,000252400234	-0,10809585504299325	0,0040332016880769088	0,6722932336115127
1	1	0	0	0	0	2	265295,34	0,100000001	2,52943969	0,00027781239442734256	0,10001053629551427	0,000252970611	-0,077814267701770803	0,0029033549503487053	0,70257482095273459
1	1	0	0	0	0	2	266385,36	0,100000001	2,50983238	0,00027781225594588454	0,10001048644780629	0,000251009566	-0,047532676434184211	0,001773508066122576	0,73285641222032141
1	1	0	0	0	0	2	267475,38	0,100000001	2,51692772	0,00027781241005617712	0,10001054192178635	0,000251719292	-0,017251127150227763	0,00064366274836213504	0,76313796150427802
1	1	0	0	0	0	2	268565,40	0,100000001	2,51868248	0,0002778125704601407	0,10001059967075842	0,000251894933	0,013030420478930358	-0,00048618250765555514	0,79341950913343642
1	1	0	0	0	0	2	269655,42	0,100000001	2,51812935	0,00027781211058050397	0,1000104341172769	0,000251839199	0,043311988077373414	-0,0016160285087541152	0,82370107673187968
1	1	0	0	0	0	2	270745,44	0,100000001	2,5181675	0,00027781319642729232	0,10001082500993699	0,000251844001	0,073593560251752422	-0,0027458746805869984	0,85398264890625882
1	1	0	0	0	0	2	271835,46	0,100000001	2,52676964	0,00027781264779385594	0,10001062750570283	0,000252703816	0,10387517855034314	-0,0038757225733762342	0,88426426720484915
1	1	0	0	0	0	2	272925,49	0,100000001	2,53319716	0,00027781208452540966	0,10001042473762357	0,000253346137	0,13415674679940678	-0,0050055685987503238	0,91454583545391283
1	1	0	0	0	0	2	274015,51	0,100000001	2,5405786	0,00027781271493517693	0,10001065167611298	0,000254084909	0,16443828947936893	-0,006135413670106857	0,94482737813387571
1	1	0	0	0	0	2	275105,53	0,100000001	2,55862212	0,00027781269881915715	0,10001064587678608	0,000255889463	0,1947198698090496	-0,0072652601462250099	0,9751089584635561
1	1	0	0	0	0	2	276005,27	0,100000001	2,5648973	0,00027011160401130714	0,10001054194614619	0,000256516767	0,21971528986726771	-0,0081978728752968218	1,0001043785217738

File: S vs Li_05_GCPL_C02_loop4.mpt
EC-Lab ASCII FILE
Nb header lines : 3
mode	ox/red	error	control changes	Ns changes	counter inc.	Ns	time/s	control/V/mA	Ewe/V	dq/mA.h	<I>/mA	P/W	(Q-Qo)/mA.h	x	Capacity/mA.h
1	0	0	1	1	0	1	276005,32	-0,100000001	2,44263697	0	0	0	0	0	0
1	0	0	1	0	0	1	277095,34	-0,100000001	2,14789605	-0,00027771322431663674	-0,099974835743072666	0,000214735555	-0,030269227197425075	0,0011293855641447338	0,030269227197425075
1	0	0	1	0	0	1	278185,36	-0,100000001	2,12697244	-0,00027771286301852931	-0,099974705682913741	0,000212643441	-0,060539838741527898	0,002258822780125288	0,060539838741527898
1	0	0	1	0	0	1	279275,38	-0,100000001	2,10929155	-0,0002777118705411752	-0,099974348393290419	0,000210875049	-0,09081050759633609	0,0033882621344453146	0,09081050759633609
1	0	0	1	0	0	1	280365,40	-0,100000001	2,0879674	-0,0002777123088509672	-0,099974506181777318	0,000208743513	-0,12108119659233613	0,0045177022402602893	0,12108119659233613
1	0	0	1	0	0	1	281455,42	-0,100000001	2,05950999	-0,00027771363122057584	-0,099974982230325581	0,000205899472	-0,15135192981459805	0,0056471439962165574	0,15135192981459805
1	0	0	1	0	0	1	282545,44	-0,100000001	2,0152216	-0,00027771175052680902	-0,09997430518895049	0,000201470379	-0,18162255428904774	0,0067765816946457382	0,18162255428904774
1	0	0	1	0	0	1	283635,47	-0,100000001	1,97949708	-0,00027771198577682176	-0,09997438987965207	0,000197899019	-0,2118931761120081	0,0079060192941442867	0,2118931761120081
1	0	0	1	0	0	1	284725,49	-0,100000001	1,9595654	-0,00027771176735228966	-0,099974311250662221	0,000195906206	-0,24216377660610179	0,009035456097834144	0,24216377660610179
1	0	0	1	0	0	1	285815,51	-0,100000001	1,95405316	-0,00027771168676225674	-0,099974282234153664	0,000195355067	-0,27243430649243162	0,010164890267053398	0,27243430649243162
1	0	0	1	0	0	1	286905,53	-0,100000001	1,95304239	-0,00027771073875659043	-0,099973940961012685	0,000195253349	-0,30270485423487078	0,011294325102508099	0,30270485423487078
1	0	0	1	0	0	1	287995,55	-0,100000001	1,95029581	-0,00027771207792518864	-0,099974423054753088	0,000194979701	-0,33297537022983213	0,012423758753421718	0,33297537022983213
1	0	0	1	0	0	1	289085,57	-0,100000001	1,94760644	-0,00027771084093054138	-0,09997397774059913	0,000194709966	-0,3632458957732528	0,013553192760601194	0,3632458957732528
1	0	0	1	0	0	1	290175,59	-0,100000001	1,94543207	-0,00027771162951572074	-0,099974261632780493	0,000194493128	-0,39351639973220646	0,014682625962435181	0,39351639973220646
1	0	0	1	0	0	1	291265,61	-0,100000001	1,94182718	-0,00027771121373441485	-0,099974111952064768	0,000194132444	-0,42378685894298586	0,015812057494654624	0,42378685894298586
1	0	0	1	0	0	1	292355,63	-0,100000001	1,93759286	-0,00027771032222318979	-0,099973791014203366	0,000193708504	-0,45405737263064243	0,0169414910594796	0,45405737263064243
1	0	0	1	0	0	1	293445,65	-0,100000001	1,93219519	-0,0002777104351168705	-0,09997383165281824	0,000193168962	-0,48432786570958438	0,018070923855365722	0,48432786570958438
1	0	0	1	0	0	1	294535,68	-0,100000001	1,92342138	-0,00027771048714054954	-0,099973850383309734	0,000192291845	-0,51459835056472058	0,019200356344410598	0,51459835056472058
1	0	0	1	0	0	1	295625,70	-0,100000001	1,91481924	-0,00027771017069493731	-0,099973736465082816	0,000191431638	-0,5448687419701488	0,020329785346721226	0,5448687419701488
1	0	0	1	0	0	1	296715,72	-0,100000001	1,90575945	-0,0002777097403941055	-0,099973581556274586	0,000190525592	-0,575139092494808	0,021459212823715392	0,575139092494808
1	0	0	1	0	0	1	297805,74	-0,100000001	1,8960129	-0,00027771082437535126	-0,099973971785500762	0,000189551938	-0,60540948094630618	0,022588641715810918	0,60540948094630618
1	0	0	1	0	0	1	298895,76	-0,100000001	1,88359618	-0,00027771003359970118	-0,099973687111748083	0,000188310049	-0,63567992030244006	0,023718072507226842	0,63567992030244006
1	0	0	1	0	0	1	299985,78	-0,100000001	1,86868083	-0,00027770887173049978	-0,099973268843397786	0,000186818128	-0,66595031896235994	0,024847501780212301	0,66595031896235994
1	0	0	1	0	0	1	301075,80	-0,100000001	1,84592628	-0,00027770935195104941	-0,0999734417229584	0,000184543605	-0,69622067417007744	0,025976929431937677	0,69622067417007744
1	0	0	1	0	0	1	302165,82	-0,100000001	1,80503297	-0,00027771089006960394	-0,099973995434976358	0,000180456351	-0,72649106024733862	0,027106358235447222	0,72649106024733862
1	0	0	1	0	0	1	303255,84	-0,100000001	1,39238048	-0,00027771021185815334	-0,099973751280063782	0,000139201496	-0,75676150023029875	0,028235789050250877	0,75676150023029875
1	1	0	0	0	0	2	304329,55	0,100000001	2,43365335	0,00027781140309613616	0,1000101794278085	0,00024339011	-0,77880143974348646	0,029058128826501747	0,0038893702769552672
1	1	0	0	0	0	2	305419,57	0,100000001	2,44021463	0,00027781186445595488	0,10001034550948826	0,000244046707	-0,74851992438732442	0,027928284774632931	0,034170885633117197
1	1	0	0	0	0	2	306509,59	0,100000001	2,42632914	0,00027781179589529834	0,10001032082812715	0,000242657959	-0,71823835359972224	0,026798438654542557	0,064452456420719181
1	1	0	0	0	0	2	307599,61	0,100000001	2,43147898	0,00027781115749561126	0,10001009101332195	0,000243172428	-0,68795688395283789	0,025668596308148352	0,094733926067603059
1	1	0	0	0	0	2	308689,63	0,100000001	2,43853617	0,00027781126206161251	0,10001012865170059	0,000243878312	-0,65767546574781875	0,024538755881119299	0,12501534427262221
1	1	0	0	0	0	2	309779,65	0,100000001	2,44114923	0,00027781238961426749	0,1000105345651691	0,000244140654	-0,62739396782032947	0,023408912479537696	0,155296842200112
1	1	0	0	0	0	2	310869,67	0,100000001	2,44984651	0,00027781067567318682	0,10000991756058896	0,000245008938	-0,59711245888213926	0,022279068667132038	0,18557835113830157
1	1	0	0	0	0	2	311959,69	0,100000001	2,45133424	0,00027781103630032803	0,10001004737920307	0,000245158066	-0,56683102460794022	0,021149227640540282	0,2158597854125016
1	1	0	0	0	0	2	313049,72	0,100000001	2,44872117	0,00027781225820051299	0,1000104872571284	0,00024489779	-0,5365495078794832	0,020019383537469293	0,24614130214095907
1	1	0	0	0	0	2	314139,74	0,100000001	2,45253587	0,00027781161505811744	0,10001025573265251	0,00024527873	-0,50626811463407149	0,018889544041716752	0,2764226953863705
1	1	0	0	0	0	2	315229,76	0,100000001	2,45762849	0,00027781149097366464	0,10001021105845264	0,000245787931	-0,47598664790477632	0,017759701804181722	0,3067041621156656
1	1	0	0	0	0	2	316319,78	0,100000001	2,46432328	0,00027781054867721267	0,10000987184059008	0,00024645665	-0,44570518426604806	0,016629859681959894	0,33698562575439392
1	1	0	0	0	0	2	317409,80	0,100000001	2,46958756	0,00027781054635552899	0,10000987100712854	0,000246983138	-0,41542375872543091	0,015500018981229818	0,36726705129501101
1	1	0	0	0	0	2	318499,82	0,100000001	2,47740769	0,00027781076227707997	0,10000994873273322	0,00024776542	-0,38514236250416493	0,014370179374444155	0,39754844751627699
1	1	0	0	0	0	2	319589,84	0,100000001	2,48162293	0,00027781089425583677	0,10000999624649934	0,000248187105	-0,35486093268692186	0,013240338514147414	0,42782987733352006
1	1	0	0	0	0	2	320679,86	0,100000001	2,48000169	0,00027781153977413974	0,10001022863094238	0,00024802555	-0,32457944772008934	0,012110495596145341	0,45811136230035258
1	1	0	0	0	0	2	321769,88	0,100000001	2,48692513	0,00027781181566251651	0,10001032794884568	0,000248718192	-0,29429794398050176	0,010980651977706538	0,48839286603994022
1	1	0	0	0	0	2	322859,90	0,100000001	2,49440193	0,0002778124145223863	0,10001054353075496	0,00024946648	-0,26401640473824768	0,0098508070346155149	0,51867440528219386
1	1	0	0	0	0	2	323949,93	0,100000001	2,49945641	0,00027781147600048115	0,10001020567286736	0,000249971141	-0,23373490819940506	0,0087209636848461888	0,54895590182103603
1	1	0	0	0	0	2	325039,95	0,100000001	2,50617027	0,00027781178172760538	0,1000103157325129	0,000250642886	-0,20345339150526048	0,0075911195830554458	0,57923741851518016
1	1	0	0	0	0	2	326129,97	0,100000001	2,51303673	0,00027781227462407613	0,10001049316833302	0,000251330057	-0,17317189019654275	0,0064612760553156646	0,60951891982389773
1	1	0	0	0	0	2	327219,99	0,100000001	2,523489	0,00027781093534206349	0,10001001103958466	0,000252374157	-0,14289034787471558	0,0053314309973216282	0,63980046214572467
1	1	0	0	0	0	2	328310,01	0,100000001	2,53096557	0,00027781187751061392	0,10001035021373203	0,000253122766	-0,11260887957002226	0,0042015887010063718	0,67008193045041792
1	1	0	0	0	0	2	329400,03	0,100000001	2,53933883	0,00027781279054449667	0,10001067889610824	0,000253961014	-0,082327365816588634	0,0030717447089375091	0,70036344420385178
1	1	0	0	0	0	2	330490,05	0,100000001	2,55022979	0,00027781121183269558	0,10001011057429565	0,00025504877	-0,052045834206350944	0,0019419000506072774	0,73064497581408883
1	1	0	0	0	0	2	331580,07	0,100000001	2,55780196	0,00027781214992950362	0,10001044828264402	0,000255806925	-0,021764352588814547	0,00081205725757194739	0,76092645743162483
1	1	0	0	0	0	2	332670,09	0,100000001	2,56747222	0,00027781093987574182	0,10001001266818467	0,000256772939	0,0085171408078037491	-0,0003177859749567655	0,79120795082824307
1	1	0	0	0	0	2	333760,11	0,100000001	2,57636023	0,0002778105685561895	0,10000987899921245	0,000257661479	0,038798525214197773	-0,001447625140913672	0,82148933523463706
1	1	0	0	0	0	2	334850,14	0,100000001	2,5829978	0,0002778115666338967	0,1000102383002687	0,000258326239	0,069079943402415757	-0,0025774655673158506	0,85177075342285504
1	1	0	0	0	0	2	335940,16	0,100000001	2,59007406	0,00027781208925114739	0,10001042644002064	0,000259034423	0,099361427458348378	-0,0037073084513310221	0,88205223747878694
1	1	0	0	0	0	2	337030,18	0,100000001	2,56491637	0,00027781209509861139	0,10001042854390288	0,000256518397	0,12964293800464066	-0,0048371523237371302	0,91233374802507955
1	1	0	0	0	0	2	338120,20	0,100000001	2,57405233	0,00027781096755754621	0,1000100226369351	0,000257431035	0,15992444214783856	-0,005966995957235177	0,94261525216827763
1	1	0	0	0	0	2	339210,22	0,100000001	2,58404684	0,00027781248219642368	0,10001056789293934	0,000258432003	0,1902059327007151	-0,0070968390836600602	0,97289674272115456
1	1	0	0	0	0	2	340189,52	0,100000001	2,59676886	0,00025780908559345536	0,1000100643881233	0,000259703025	0,21741150683095965	-0,0081119156327429312	1,0001023168513992