Folder: thesis/Experimentelles/Rohdaten/Batteriemessungen/AlteZelle/Studenten_Batterietests/Sonstige/ECLab-Export (part 4)

File: S vs Li_05_GCPL_C02_loop6.mpt
EC-Lab ASCII FILE
Nb header lines : 3
mode	ox/red	error	control changes	Ns changes	counter inc.	Ns	time/s	control/V/mA	Ewe/V	dq/mA.h	<I>/mA	P/W	(Q-Qo)/mA.h	x	Capacity/mA.h
1	0	0	1	1	0	1	404756,21	-0,100000001	2,48772621	0	0	0	0	0	0
1	0	0	1	0	0	1	405856,23	-0,100000001	2,1653862	-0,00027771055573804512	-0,099973875077932646	0,000216482047	-0,030546754623166131	0,0011397404855387248	0,030546754623166131
1	0	0	1	0	0	1	406956,25	-0,100000001	2,14827752	-0,00027771036070833606	-0,099973804863933952	0,000214771484	-0,061094878964066253	0,0022795320770877104	0,061094878964066253
1	0	0	1	0	0	1	408056,28	-0,100000001	2,12804055	-0,0002777099170357817	-0,099973645144889766	0,000212747967	-0,091642982561373683	0,0034193228946653619	0,091642982561373683
1	0	0	1	0	0	1	409156,30	-0,100000001	2,11209536	-0,00027771025496141779	-0,099973766800431667	0,000211154125	-0,12219106305006917	0,0045591128500296326	0,12219106305006917
1	0	0	1	0	0	1	410256,32	-0,100000001	2,09403276	-0,00027771102658079734	-0,099974044573404416	0,000209348931	-0,15273919591071907	0,0056989047594619373	0,15273919591071907
1	0	0	1	0	0	1	411356,34	-0,100000001	2,06687236	-0,00027771116312634614	-0,099974093728855501	0,000206633689	-0,18328734214180221	0,006838697167763081	0,18328734214180221
1	0	0	1	0	0	1	412456,36	-0,100000001	2,02702808	-0,00027771037263837123	-0,099973809163319232	0,000202649724	-0,21383546625728365	0,0079784887509013926	0,21383546625728365
1	0	0	1	0	0	1	413556,38	-0,100000001	1,98697388	-0,00027771010479248234	-0,099973712736000525	0,000198645153	-0,24438357450508608	0,0091182797419952653	0,24438357450508608
1	0	0	1	0	0	1	414656,40	-0,100000001	1,96889234	-0,00027771001518724694	-0,099973680481064563	0,000196837413	-0,27493168745291181	0,010258070908453328	0,27493168745291181
1	0	0	1	0	0	1	415756,42	-0,100000001	1,96160626	-0,00027770941254662144	-0,099973463536944307	0,000196108565	-0,30547973597567859	0,011397859671125821	0,30547973597567859
1	0	0	1	0	0	1	416856,44	-0,100000001	1,96082425	-0,00027770963874459264	-0,099973544961990733	0,000196030553	-0,33602779761112134	0,012537648923049882	0,33602779761112134
1	0	0	1	0	0	1	417956,47	-0,100000001	1,95552182	-0,00027770933568353453	-0,099973435864438157	0,000195500237	-0,36657582769135482	0,013677436997606661	0,36657582769135482
1	0	0	1	0	0	1	419056,49	-0,100000001	1,95454907	-0,0002777099111965961	-0,099973643047478733	0,000195403394	-0,39712389036861325	0,014817226288402266	0,39712389036861325
1	0	0	1	0	0	1	420156,51	-0,100000001	1,95113504	-0,00027770925600536995	-0,099973407183178867	0,000195061613	-0,42767197314643827	0,015957016329177037	0,42767197314643827
1	0	0	1	0	0	1	421256,53	-0,100000001	1,94724405	-0,00027771089039618768	-0,099973995549052762	0,000194673761	-0,45822011510201472	0,017096808577953277	0,45822011510201472
1	0	0	1	0	0	1	422356,55	-0,100000001	1,94142663	-0,00027770996038615706	-0,099973660755379699	0,000194091524	-0,48876820900998733	0,018236599034008822	0,48876820900998733
1	0	0	1	0	0	1	423456,57	-0,100000001	1,93065023	-0,00027770929688960314	-0,099973421901219418	0,000193013708	-0,51931623656095782	0,019376387014195395	0,51931623656095782
1	0	0	1	0	0	1	424556,59	-0,100000001	1,92555761	-0,00027770898938965466	-0,09997331119987799	0,000192504376	-0,54986421498445536	0,020516173161369901	0,54986421498445536
1	0	0	1	0	0	1	425656,61	-0,100000001	1,91882467	-0,00027770847617669235	-0,099973126450260403	0,000191830899	-0,58041218633254259	0,021655959044551338	0,58041218633254259
1	0	0	1	0	0	1	426756,64	-0,100000001	1,90986025	-0,00027770925505045386	-0,09997340683941568	0,000190935243	-0,61096017642966835	0,022795745627284608	0,61096017642966835
1	0	0	1	0	0	1	427856,66	-0,100000001	1,89843524	-0,0002777095819889671	-0,099973524532104678	0,000189793267	-0,64150816870773274	0,023935532291391632	0,64150816870773274
1	0	0	1	0	0	1	428956,68	-0,100000001	1,88094497	-0,00027770998856425286	-0,099973670899298867	0,000188044971	-0,67205621433601856	0,025075320946067149	0,67205621433601856
1	0	0	1	0	0	1	430056,70	-0,100000001	1,85876262	-0,00027770991693395706	-0,099973645112888909	0,000185827274	-0,70260427868005555	0,026215110299052506	0,70260427868005555
1	0	0	1	0	0	1	431156,72	-0,100000001	1,8129102	-0,00027771151678222752	-0,09997422104368521	0,000181244279	-0,73315239123353971	0,027354901450797152	0,73315239123353971
1	0	0	1	0	0	1	432256,74	-0,100000001	1,42738008	-0,00027771134040380518	-0,099974157552167245	0,000142701116	-0,76370066102287846	0,028494698469222938	0,76370066102287846
1	0	0	1	0	0	1	433356,76	-0,100000001	1,01463223	-0,00027771094190660448	-0,099974014095937242	0,000101436854	-0,79424890538554406	0,029634494538945363	0,79424890538554406
1	1	0	0	0	0	2	434444,62	0,100000001	2,45575929	0,00027781342878647974	0,10001090865763382	0,000245602714	-0,7655737973223977	0,028564587703016541	0,029448130956257786
1	1	0	0	0	0	2	435544,64	0,100000001	2,43928003	0,00027781273050523469	0,10001065728588286	0,000243953997	-0,73501435572765734	0,027424373849510566	0,060007572550998349
1	1	0	0	0	0	2	436644,66	0,100000001	2,445822	0,00027781316806582944	0,10001081480000694	0,000244608644	-0,70445496308251763	0,02628416182238001	0,090566965196137997
1	1	0	0	0	0	2	437744,68	0,100000001	2,44889283	0,00027781463665349613	0,10001134348138722	0,000244917057	-0,67389558411390758	0,025143950305539155	0,12112634416474811
1	1	0	0	0	0	2	438844,70	0,100000001	2,45633149	0,0002778133442186647	0,10001087821846363	0,000245659874	-0,6433361518184823	0,024003736799003133	0,15168577646017318
1	1	0	0	0	0	2	439944,73	0,100000001	2,45883012	0,00027781201073610118	0,10001039816932699	0,000245908566	-0,61277673366414707	0,022863523820090186	0,18224519461450842
1	1	0	0	0	0	2	441044,75	0,100000001	2,45217347	0,00027781255049506819	0,10001059248114219	0,000245243311	-0,58221729843778829	0,021723310204197091	0,21280462984086774
1	1	0	0	0	0	2	442144,77	0,100000001	2,45638871	0,00027781283400249152	0,1000106945441779	0,000245665142	-0,55165789251592781	0,020583097681694227	0,24336403576272739
1	1	0	0	0	0	2	443244,79	0,100000001	2,4571898	0,00027781268564901418	0,10001064113329738	0,000245745119	-0,52109850792584576	0,019442885955108701	0,27392342035280899
1	1	0	0	0	0	2	444344,81	0,100000001	2,46123338	0,00027781304980028003	0,10001077222755744	0,000246149837	-0,49053910670100864	0,018302673607858096	0,30448282157764627
1	1	0	0	0	0	2	445444,83	0,100000001	2,46577287	0,00027781180733566483	0,10001032495123678	0,000246602751	-0,45997974349435827	0,017162462679117152	0,33504218478429664
1	1	0	0	0	0	2	446544,85	0,100000001	2,46998811	0,00027781145405603782	0,10001019777301987	0,000247024	-0,42942046511079878	0,016022254915239776	0,36560146316785613
1	1	0	0	0	0	2	447644,87	0,100000001	2,47458482	0,00027781189331288138	0,10001035589894603	0,000247484102	-0,39886114171863789	0,014882045472030966	0,39616078656001702
1	1	0	0	0	0	2	448744,89	0,100000001	2,47796082	0,00027781202928101018	0,10001040485002267	0,000247821852	-0,3683017970433223	0,013741835234719043	0,42672013123533261
1	1	0	0	0	0	2	449844,92	0,100000001	2,48141313	0,00027781306766097747	0,10001077865961322	0,000248168071	-0,33774243850694317	0,012601624480232197	0,45727948977171174
1	1	0	0	0	0	2	450944,94	0,100000001	2,48705864	0,00027781194991618394	0,10001037627574259	0,000248731667	-0,30718305273151904	0,01146141270941996	0,48783887554713587
1	1	0	0	0	0	2	452044,96	0,100000001	2,47918153	0,00027781271331343389	0,10001065109695374	0,000247944554	-0,2766236505659656	0,010321200327069963	0,51839827771268998
1	1	0	0	0	0	2	453144,98	0,100000001	2,49526024	0,00027781328071902195	0,1000108553590324	0,000249553123	-0,24606422086719235	0,0091809869174185165	0,54895770741146278
1	1	0	0	0	0	2	454245,00	0,100000001	2,48915672	0,00027781292075374061	0,10001072576820498	0,000248942379	-0,21550478984379658	0,0080407734583436224	0,57951713843485837
1	1	0	0	0	0	2	455345,02	0,100000001	2,4868679	0,00027781308467893136	0,10001078478595867	0,000248713623	-0,18494535883345613	0,0069005599997558413	0,61007656944519936
1	1	0	0	0	0	2	456445,04	0,100000001	2,50023842	0,00027781340794223875	0,10001090115850859	0,000250051089	-0,15438592337205341	0,0057603463750929395	0,6406360049066025
1	1	0	0	0	0	2	457545,06	0,100000001	2,50401497	0,00027781337753476368	0,10001089020853555	0,00025042877	-0,12382648161431654	0,0046201325155053472	0,67119544666433933
1	1	0	0	0	0	2	458645,09	0,100000001	2,52261162	0,00027781286100505126	0,10001070426491226	0,000252288155	-0,093267032305087526	0,0034799183741614291	0,70175489597356787
1	1	0	0	0	0	2	459745,11	0,100000001	2,52158165	0,00027781260095536707	0,10001061064882851	0,000252184924	-0,06270762250853911	0,0023397057070887491	0,73231430577011686
1	1	0	0	0	0	2	460845,13	0,100000001	2,52987838	0,00027781281343433594	0,10001068713745597	0,000253014878	-0,032148170200859923	0,0011994914538686242	0,76287375807779584
1	1	0	0	0	0	2	461945,15	0,100000001	2,54311538	0,00027781286374934848	0,1000107052481832	0,000254338753	-0,0015887340319044822	5,9277802805980365E-005	0,79343319424675162
1	1	0	0	0	0	2	463045,17	0,100000001	2,54799819	0,00027781207288594707	0,1000104205474977	0,000254826358	0,02897066991474688	-0,0010809346459991749	0,82399259819340301
1	1	0	0	0	0	2	464145,19	0,100000001	2,56022429	0,00027781268191296198	0,10001063978834448	0,00025604968	0,05953007558052617	-0,0022211471589473043	0,85455200385918285
1	1	0	0	0	0	2	465245,21	0,100000001	2,56951284	0,00027781421952446304	0,10001119331782669	0,000256980042	0,090089521494991309	-0,0033613611736280173	0,88511144977364826
1	1	0	0	0	0	2	466345,23	0,100000001	2,58200598	0,00027781220493258701	0,10001046808337277	0,000258227636	0,12064894933900949	-0,0045015745140760589	0,91567087761766669
1	1	0	0	0	0	2	467445,26	0,100000001	2,59840918	0,00027781286764848566	0,10001070665184555	0,000259868742	0,15120836548737232	-0,0056417874181434752	0,94623029376602982
1	1	0	0	0	0	2	468545,28	0,100000001	2,62064862	0,00027781263287448221	0,1000106221394887	0,000262092712	0,18176787224753002	-0,0067820037030587853	0,97678980052618714
1	1	0	0	0	0	2	469384,57	0,100000001	2,64359403	0,00025781058156448931	0,10001064470963946	0,000264387549	0,20508418945488013	-0,0076519668471869171	1,0001061177335376

File: S vs Li_05_GCPL_C02_loop10.mpt
EC-Lab ASCII FILE
Nb header lines : 3
mode	ox/red	error	control changes	Ns changes	counter inc.	Ns	time/s	control/V/mA	Ewe/V	dq/mA.h	<I>/mA	P/W	(Q-Qo)/mA.h	x	Capacity/mA.h
1	0	0	1	1	0	1	663161,84	-0,100000001	2,8098948	0	0	0	0	0	0
1	0	0	1	0	0	1	664251,86	-0,100000001	2,17868042	-0,00027771233874683581	-0,099974564619407526	0,000217812631	-0,030269398382958982	0,001129391951307165	0,030269398382958982
1	0	0	1	0	0	1	665341,88	-0,100000001	2,15863442	-0,00027771383503244982	-0,099975103272113715	0,000215809705	-0,060540134137158272	0,0022588338017334211	0,060540134137158272
1	0	0	1	0	0	1	666431,90	-0,100000001	2,14385247	-0,00027771328220226701	-0,099974904256985024	0,000214331449	-0,09081087365072151	0,0033882757924266003	0,09081087365072151
1	0	0	1	0	0	1	667521,92	-0,100000001	2,13004327	-0,00027771286631292771	-0,099974754539634266	0,000212950559	-0,12108159755796573	0,004517717200827033	0,12108159755796573
1	0	0	1	0	0	1	668611,95	-0,100000001	2,11421251	-0,00027771195495252806	-0,09997442645139584	0,00021136718	-0,15135232307628381	0,0056471586693388	0,15135232307628381
1	0	0	1	0	0	1	669701,97	-0,100000001	2,09508181	-0,00027771372202494077	-0,099975062590174387	0,000209455931	-0,18162303710275859	0,006776599709074441	0,18162303710275859
1	0	0	1	0	0	1	670791,99	-0,100000001	2,06635737	-0,00027771207937805187	-0,09997447124839863	0,00020658299	-0,21189369996010237	0,0079060388396210074	0,21189369996010237
1	0	0	1	0	0	1	671882,01	-0,100000001	2,02479649	-0,00027771225987457568	-0,099974536221271718	0,000202428084	-0,24216431088412557	0,0090354760324655565	0,24216431088412557
1	0	0	1	0	0	1	672972,03	-0,100000001	1,98067963	-0,00027771186005862224	-0,099974392294886566	0,000198017238	-0,27243492263822717	0,010164913256281446	0,27243492263822717
1	0	0	1	0	0	1	674062,05	-0,100000001	1,95748639	-0,00027771316966455846	-0,099974863744170701	0,000195699438	-0,30270560807360192	0,011294353229244706	0,30270560807360192
1	0	0	1	0	0	1	675152,07	-0,100000001	1,95302331	-0,00027771208718336291	-0,099974474053602509	0,000195252476	-0,33297628598050797	0,012423792921310674	0,33297628598050797
1	0	0	1	0	0	1	676242,09	-0,100000001	1,95109689	-0,00027771167436987162	-0,099974325448191578	0,000195059591	-0,36324690739372966	0,013553230505521322	0,36324690739372966
1	0	0	1	0	0	1	677332,11	-0,100000001	1,94894159	-0,0002777122254686223	-0,09997452384001641	0,000194844513	-0,39351746951191968	0,014682665877354618	0,39351746951191968
1	0	0	1	0	0	1	678422,13	-0,100000001	1,94585168	-0,00027771201654896138	-0,099974448625695437	0,000194535445	-0,42378805746266125	0,015812102213035139	0,42378805746266125
1	0	0	1	0	0	1	679512,15	-0,100000001	1,94369638	-0,00027771227658415837	-0,099974542241263859	0,00019432015	-0,45405861776419514	0,01694153751708655	0,45405861776419514
1	0	0	1	0	0	1	680602,17	-0,100000001	1,94064462	-0,00027771222985618643	-0,09997452541950985	0,000194015025	-0,48432921686938874	0,018070974268954678	0,48432921686938874
1	0	0	1	0	0	1	681692,19	-0,100000001	1,93879449	-0,0002777112436249024	-0,099974170380586842	0,000193829372	-0,51459981179066048	0,019200410864715056	0,51459981179066048
1	0	0	1	0	0	1	682782,21	-0,100000001	1,93509424	-0,0002777111155829496	-0,099974124288677056	0,000193459346	-0,54487034460951354	0,020329845143350694	0,54487034460951354
1	0	0	1	0	0	1	683872,23	-0,100000001	1,93225241	-0,00027771160231116746	-0,099974299507545203	0,000193175583	-0,57514089342065254	0,021459280018680022	0,57514089342065254
1	0	0	1	0	0	1	684962,25	-0,100000001	1,92601538	-0,0002777115981111096	-0,099974297997880435	0,000192552034	-0,60541143100934592	0,022588714475284819	0,60541143100934592
1	0	0	1	0	0	1	686052,27	-0,100000001	1,9181571	-0,00027771110894365443	-0,099974121898575667	0,00019176607	-0,63568189075916634	0,023718146027616605	0,63568189075916634
1	0	0	1	0	0	1	687142,29	-0,100000001	1,90108645	-0,00027771173867748842	-0,099974348598498906	0,000190059873	-0,66595241512685594	0,024847579990927974	0,66595241512685594
1	0	0	1	0	0	1	688232,31	-0,100000001	1,86423671	-0,00027771182666222256	-0,099974380268916928	0,00018637591	-0,69622300258822259	0,025977016308349258	0,69622300258822259
1	0	0	1	0	0	1	689322,33	-0,100000001	1,66959286	-0,00027771244293285744	-0,099974602125671027	0,000166916885	-0,72649362139214656	0,027106453795203504	0,72649362139214656
1	0	0	1	0	0	1	690412,35	-0,100000001	1,35396671	-0,000277712158995784	-0,099974499910243981	0,000135362148	-0,75676425496835558	0,028235891833231558	0,75676425496835558
1	1	0	0	0	0	2	691491,75	0,100000001	2,17946243	0,00027781186861544848	0,10001039469579555	0,000217968904	-0,78396215436573158	0,02925068202771232	0,0013890632426299984
1	1	0	0	0	0	2	692581,77	0,100000001	2,45797181	0,00027781128334171238	0,10001018400469974	0,000245822215	-0,7536806548786953	0,02812083856794192	0,031670562729666643
1	1	0	0	0	0	2	693671,79	0,100000001	2,43651438	0,00027781226277558342	0,10001053659427235	0,000243677117	-0,72339911588623565	0,026990993634171059	0,06195210172212663
1	1	0	0	0	0	2	694761,81	0,100000001	2,43308115	0,00027781263245145475	0,10001066967159429	0,000243334071	-0,69311755115691712	0,025861147740123395	0,092233666451445402
1	1	0	0	0	0	2	695851,83	0,100000001	2,43434	0,00027781161622992822	0,10001030384220714	0,000243459086	-0,66283598002347584	0,024731301607129302	0,12251523758488712
1	1	0	0	0	0	2	696941,85	0,100000001	2,44055796	0,0002778127891032232	0,10001072606866472	0,000244081966	-0,63255442263172557	0,02360145598685617	0,1527967949766376
1	1	0	0	0	0	2	698031,87	0,100000001	2,44263697	0,00027781266526836493	0,1000106814854601	0,000244289782	-0,60227287390938445	0,022471610690050352	0,18307834369897843
1	1	0	0	0	0	2	699121,89	0,100000001	2,44362879	0,00027781192577671674	0,10001041527695848	0,000244388328	-0,57199135827497939	0,021341766627799917	0,21335985933338358
1	1	0	0	0	0	2	700211,91	0,100000001	2,43025827	0,00027781265250758995	0,10001067689516013	0,000243051778	-0,54170986387683309	0,020211923357902845	0,24364135373152998
1	1	0	0	0	0	2	701301,93	0,100000001	2,43109751	0,00027781255286518074	0,10001064102223789	0,000243135626	-0,51142832781387072	0,019082078533435472	0,27392288979449258
1	1	0	0	0	0	2	702391,96	0,100000001	2,43254709	0,00027781249477797082	0,10001062011356349	0,000243280549	-0,48114674969660166	0,017952232139865373	0,30420446791176173
1	1	0	0	0	0	2	703481,98	0,100000001	2,44015741	0,00027781332362939917	0,10001091849447469	0,000244042385	-0,45086512998479846	0,016822384194347277	0,33448608762356493
1	1	0	0	0	0	2	704572,00	0,100000001	2,44643235	0,00027781220636930733	0,10001051628373726	0,000244668976	-0,42058348172632211	0,015692535183714426	0,36476773588204128
1	1	0	0	0	0	2	705662,02	0,100000001	2,45053315	0,00027781225069446698	0,10001053224515211	0,000245079136	-0,39030189713327648	0,014562688548524397	0,39504932047508685
1	1	0	0	0	0	2	706752,04	0,100000001	2,45461488	0,00027781321944917245	0,10001088099029733	0,000245488191	-0,36002027435791142	0,01343284048870069	0,4253309432504519
1	1	0	0	0	0	2	707842,06	0,100000001	2,45551133	0,00027781277265730832	0,10001072014358954	0,000245577452	-0,3297386664681593	0,012302992984279214	0,45561255114020403
1	1	0	0	0	0	2	708932,08	0,100000001	2,46321702	0,00027781226695949834	0,10001053810045347	0,000246347656	-0,29945708679388845	0,011173146532615282	0,48589413081447488
1	1	0	0	0	0	2	710022,10	0,100000001	2,47090364	0,00027781154188637933	0,1000102770790321	0,000247115764	-0,26917549123067235	0,01004329948811344	0,51617572637769126
1	1	0	0	0	0	2	711112,12	0,100000001	2,47447038	0,00027781177480684384	0,10001036092416778	0,000247472664	-0,23889395578732022	0,0089134546867645555	0,54645726182104384
1	1	0	0	0	0	2	712202,14	0,100000001	2,46701264	0,0002778127583728896	0,10001071500595237	0,000246727694	-0,20861234667204499	0,0077836071366171686	0,57673887093631898
1	1	0	0	0	0	2	713292,16	0,100000001	2,47023606	0,00027781289967770374	0,10001076587473026	0,000247050193	-0,17833074924089603	0,0066537600224202406	0,60702046836746765
1	1	0	0	0	0	2	714382,18	0,100000001	2,47508073	0,00027781419034550589	0,10001123050175709	0,000247535878	-0,14804909747938	0,0055239108810842688	0,63730212012898381
1	1	0	0	0	0	2	715472,20	0,100000001	2,47147584	0,00027781285356067949	0,10001074927291325	0,000247174146	-0,11776751176568013	0,0043940642040811194	0,66758370584268288
1	1	0	0	0	0	2	716562,22	0,100000001	2,47584367	0,0002778127052361767	0,10001069587709493	0,000247610849	-0,087485904621298266	0,0032642167274704134	0,69786531298706445
1	1	0	0	0	0	2	717652,24	0,100000001	2,4792769	0,00027781324417971901	0,10001088989312691	0,000247954682	-0,057204331207956915	0,0021343705094101795	0,72814688640040614
1	1	0	0	0	0	2	718742,26	0,100000001	2,49012947	0,00027781326694124278	0,1000108980871216	0,00024904008	-0,026922674252297923	0,0010045211742737506	0,75842854335606502
1	1	0	0	0	0	2	719832,28	0,100000001	2,50092506	0,00027781465178355578	0,10001139662099277	0,000250120996	0,0033590222750966419	-0,00012532963733733718	0,78871023988346022
1	1	0	0	0	0	2	720922,30	0,100000001	2,50527382	0,00027781431748014362	0,10001127627402427	0,000250555633	0,033640756891168038	-0,0012551818700881682	0,81899197449953088
1	1	0	0	0	0	2	722012,32	0,100000001	2,52156258	0,00027781360775108141	0,10001102077635965	0,000252184051	0,063922446048055462	-0,0023850324066957248	0,84927366365641805
1	1	0	0	0	0	2	723102,34	0,100000001	2,54387832	0,00027781312520512275	0,10001084706307653	0,000254415412	0,09420404411620169	-0,0035148795446598771	0,87955526172456397
1	1	0	0	0	0	2	724192,36	0,100000001	2,57685614	0,00027781239293681254	0,10001058345143496	0,000257712876	0,12448564557683238	-0,0046447268092021862	0,90983686318519488
1	1	0	0	0	0	2	725282,38	0,100000001	2,7549634	0,00027781232558232218	0,10001055920427374	0,000275525439	0,15476715707269405	-0,0057745707170380045	0,94011837468105651
1	1	0	0	0	0	2	726372,41	0,100000001	2,91277647	0,00027781270701976285	0,1000106965191739	0,000291308796	0,18504875709063069	-0,0069044179277514586	0,9703999746989929
1	1	0	0	0	0	2	727441,71	0,100000001	3,05622745	0,00025781087945029142	0,10001080780009622	0,000305655762	0,21475472162677981	-0,0080127874046892838	1,0001059392351424