Folder: thesis/Experimentelles/Rohdaten/Batteriemessungen/AlteZelle/Studenten_Batterietests/Sonstige/ECLab-Export

Note: README.md
# thesis

Zusammenfassung
---------------
Es konnten die Festkörperelektrolytkeramiken LATP, LAGP, LTO und LLTO hergestellt,
mit XRD und MAS-NMR charakterisiert und zu Elektrodensuspensionen weiterverarbeitet
werden. Aus den Daten der MAS-NMR konnten dabei gegenüber der XRD keine Mehrinfor-
mationen gewonnen werden. Die mit den Suspensionen gegossenen und gestanzten Elektro-
denproben wurden mittels REM und EDX untersucht und als Kathode in Testzellen verbaut.
Mit diesen wurden Ladekennlinien erstellt und eine zyklischer Voltametrie durchgeführt. Aus
den Ladekennlinien konnten die Kapazitäten und der Grad der Lithiuminsertation in die
Materialen bestimmt werden. Die zyklische Voltametrie lieferte nicht-reaktive Spannungsbe-
reiche der Materialien.

Für ein noch besseres Verständnis der Lithiumbewegung und -insertation wurde eine in-situ
NMR-Testzelle konzipiert, konstruiert, gebaut und getestet. Für den Test kam dabei eine
Lithium-Schwefel-Zelle zum Einsatz, für welche ein Di?usionskoe?zient sowie ein Spektrum
vor und nach einer 90 minütigen Ladezeit aufgenommen worden ist.

Abstract
--------
The all solid state electrolyte ceramics LATP, LAGP, LTO, and LLTO were successfully
synthesized and characterized by using XRD. MAS-NMR spectroscopy were not able to ge-
nerate additional information. All powders were processed to electrode slurries, casted on
aluminum foils and punched to electrode samples. Those samples were studied by SEM and
EDX and then build into battery test cells. The cells were analyzed by measuring the charge
curves as well as cyclic voltammetry. With the charge curves capacities and the amount of
lithium insertion were calculated. The cyclic voltammetry was able to detect non-reactive
voltage regions.

To be able to better understand lithium movement and insertion a novel in-situ NMR sample
cell was designed, constructed, built and tested. Therefore, a lithium-sulfur-cell was built into
the in-situ sample cell. With this setting a diffusion coeffcient as well as a NMR spectrum
before and after 90 minutes of charging were measured.

File: LiCoO2 vs Li_02_CV_C01_loop5.mpt
EC-Lab ASCII FILE
Nb header lines : 3
mode	ox/red	error	control changes	counter inc.	time/s	control/V	Ewe/V	<I>/mA	cycle number	(Q-Qo)/C	P/W
2	0	0	1	0	7200,62	3,10406637	3,10440207	-0,59053277969360346	6	0	0,00183325121
2	0	0	0	0	7206,40	3,04626036	3,0463295	-0,51135928882286131	6	-0,00297589228	0,0015577689
2	0	0	1	0	7212,20	2,98825526	2,98822737	-0,51248502731323309	6	-0,00594724389	0,00153142179
2	0	0	1	0	7218,00	2,93024969	2,93039584	-0,5142139866948128	6	-0,00892602	0,00150685047
2	0	0	0	0	7223,80	2,87224436	2,87240386	-0,51673584431409747	6	-0,0119176451	0,00148427405
2	0	0	1	0	7229,60	2,81423903	2,81454229	-0,52014409253994739	6	-0,0149278687	0,00146396749
2	0	0	0	0	7235,40	2,75623369	2,75637031	-0,52344622105353619	6	-0,0179570578	0,00144281157
2	0	0	0	0	7241,20	2,69822812	2,69864869	-0,52635816639909907	6	-0,0210052431	0,00142045575
2	0	0	1	0	7247,00	2,64022255	2,64056659	-0,52864841620127482	6	-0,0240688957	0,00139593135
2	0	0	0	0	7252,80	2,58221722	2,5824945	-0,52851557452231514	6	-0,0271396413	0,00136488851
2	0	0	0	0	7258,60	2,52421165	2,52455282	-0,5258603780530384	6	-0,030202141	0,00132756226
2	0	0	1	0	7264,40	2,46620631	2,46655083	-0,51812743007515571	6	-0,0332346335	0,00127798761
2	0	0	0	0	7270,21	2,40820098	2,4085288	-0,505461587260168	6	-0,03620876	0,00121741882
2	0	0	0	0	7276,01	2,35019588	2,35041547	-0,48728669793703008	6	-0,0390928946	0,00114532618
2	0	0	1	0	7281,81	2,29219007	2,29252481	-0,46615514531731603	6	-0,0418621711	0,00106867228
2	0	0	0	0	7287,61	2,23418474	2,23463321	-0,44395028039192307	6	-0,0445040055	0,000992065994
2	0	0	1	0	7293,41	2,17617917	2,1764009	-0,42406437809889395	6	-0,0470229872	0,000922934094
2	0	0	1	0	7299,21	2,11817408	2,11847901	-0,40792588780944429	6	-0,0494372323	0,000864182424
2	0	0	0	0	7305,01	2,0601685	2,060467	-0,39705325678611827	6	-0,0517722853	0,000818115135
2	0	0	1	0	7310,81	2,00216317	2,0025053	-0,39036874845623968	6	-0,0540559366	0,000781715498
2	0	0	1	0	7316,61	1,94415784	1,94439304	-0,38830853540760749	6	-0,0563147143	0,000755024434
2	0	0	0	0	7322,41	1,88615227	1,88638091	-0,38988208902689338	6	-0,0585733391	0,000735466136
2	0	0	1	0	7328,21	1,82814682	1,82848942	-0,39449812859917619	6	-0,0608507171	0,000721335644
2	0	0	0	0	7334,01	1,77014148	1,77021694	-0,40325692063197581	6	-0,0631666109	0,000713852234
2	0	0	0	0	7339,81	1,71213615	1,71242559	-0,41480698809027629	6	-0,0655418411	0,000710326072
2	0	0	1	0	7345,61	1,65413058	1,65435326	-0,42938609033202016	6	-0,0679949373	0,000710356282
2	0	0	0	0	7351,41	1,59612536	1,59654188	-0,44340067387869018	6	-0,0705280229	0,000707907719
2	0	0	0	0	7357,21	1,53811991	1,53832948	-0,46076480283712582	6	-0,0731509626	0,000708808075
2	0	0	1	0	7363,01	1,48011446	1,48064828	-0,48266497471680192	6	-0,0758879185	0,000714657072
2	0	0	0	0	7368,81	1,42210901	1,42245591	-0,5116090088461833	6	-0,0787711814	0,000727741281
2	0	0	1	0	7374,61	1,36410367	1,36451423	-0,54971327430879136	6	-0,0818473324	0,000750091567
2	0	0	1	0	7380,42	1,30609822	1,30655229	-0,60364556514347686	6	-0,0851856843	0,00078869448
2	0	0	0	0	7386,22	1,24809277	1,24833989	-0,6813216645581033	6	-0,0889029056	0,000850521028
2	0	0	1	0	7392,02	1,19008744	1,19031787	-0,78678067990889382	6	-0,0931524038	0,000936519122
2	0	0	1	0	7397,82	1,13208199	1,13239598	-0,9167695088932919	6	-0,0980857834	0,00103814609
2	0	0	0	0	7403,66	1,07367659	1,07378256	-1,068882239672047	6	-0,103876121	0,00114774716
2	0	0	1	0	7409,46	1,01567113	1,0160414	-1,2559461891651189	6	-0,11059653	0,0012760933
2	1	0	0	0	7415,21	1,04177356	1,042045	-0,90562299080193037	6	-0,117089942	0,00094369991
2	1	0	1	0	7421,01	1,09977889	1,10011709	-0,59365727504094502	6	-0,121360041	0,000653092517
2	1	0	0	0	7426,85	1,15818441	1,15837967	-0,40172744976977536	6	-0,124217719	0,000465352903
2	1	0	1	0	7432,65	1,21618974	1,21635151	-0,28053937293589203	6	-0,126169458	0,000341234496
2	1	0	1	0	7438,45	1,27419531	1,27436352	-0,19730884108381952	6	-0,127537102	0,000251443184
2	1	0	0	0	7444,25	1,33220077	1,33247578	-0,13625622796826109	6	-0,128491566	0,00018155812
2	1	0	1	0	7450,05	1,3902061	1,3903873	-0,088516824587714035	6	-0,129134849	0,000123072663
2	1	0	1	0	7455,87	1,44841146	1,44859982	-0,050124647396539104	6	-0,12953192	7,26105573E-005
2	1	0	0	0	7461,69	1,50661695	1,50694275	-0,01651946607550303	6	-0,129720658	2,48938904E-005
2	1	0	1	0	7467,57	1,5654223	1,56574631	0,014662036541267312	6	-0,129722476	2,29570287E-005
2	1	0	0	0	7473,37	1,62342787	1,6239289	0,044799199919604237	6	-0,129547015	7,2750714E-005
2	1	0	0	0	7479,18	1,6814332	1,68151975	0,07594993632907671	6	-0,129195154	0,000127711319
2	1	0	1	0	7485,02	1,73983872	1,74004316	0,10728926234878578	6	-0,128657356	0,000186687947
2	1	0	0	0	7490,82	1,79784405	1,798105	0,14013933630970632	6	-0,127935916	0,000251985242
2	1	0	0	0	7496,62	1,85584962	1,85617721	0,17299188991698202	6	-0,127024457	0,000321103609
2	1	0	1	0	7502,42	1,91385484	1,91421914	0,20409723410072323	6	-0,125926852	0,000390686822
2	1	0	0	0	7508,22	1,97186041	1,97231126	0,2314847582795967	6	-0,124658249	0,000456559996
2	1	0	1	0	7514,02	2,02986598	2,03023291	0,25463718610505158	6	-0,12324255	0,000516972796
2	1	0	1	0	7519,82	2,08787107	2,08827496	0,27282002964057072	6	-0,121707849	0,000569723255
2	1	0	0	0	7525,62	2,14587641	2,14627719	0,2864999557690071	6	-0,120081544	0,000614908291
2	1	0	1	0	7531,42	2,20388198	2,20413876	0,29632172663696064	6	-0,118386492	0,000653134193
2	1	0	1	0	7537,22	2,26188731	2,26226091	0,30383056743691373	6	-0,116641648	0,000687344
2	1	0	0	0	7543,02	2,31989264	2,32015252	0,30966683741037926	6	-0,114858866	0,000718474272
2	1	0	1	0	7548,82	2,37789822	2,37797403	0,3140267482958743	6	-0,113047443	0,000746747479
2	1	0	0	0	7554,62	2,4359045	2,4360764	0,31776734206872435	6	-0,11121203	0,000774105545
2	1	0	0	0	7560,42	2,49390912	2,4941082	0,32145368183652589	6	-0,109354772	0,000801740272
2	1	0	1	0	7566,22	2,55191445	2,55227089	0,32515999247940774	6	-0,107477315	0,000829896366
2	1	0	0	0	7572,02	2,60991979	2,61025238	0,32937696094935155	6	-0,105576284	0,000859757012
2	1	0	0	0	7577,82	2,66792512	2,66780329	0,3361354093843447	6	-0,103644319	0,000896743149
2	1	0	1	0	7583,62	2,72593069	2,72612596	0,3459547949023545	6	-0,101664335	0,00094311632
2	1	0	0	0	7589,43	2,78393602	2,78412771	0,3599882210449641	6	-0,0996162742	0,00100225315
2	1	0	0	0	7595,23	2,84194088	2,84207964	0,38064331246472397	6	-0,0974712148	0,0010818186
2	1	0	1	0	7601,03	2,89994693	2,90003157	0,4100358569994551	6	-0,0951740518	0,00118911697
2	1	0	0	0	7606,83	2,9579525	2,95807362	0,43297276832163334	6	-0,092726253	0,00128076528
2	1	0	1	0	7612,63	3,01595759	3,01618576	0,4596183776545031	6	-0,0901367888	0,00138629437
2	1	0	1	0	7618,43	3,07396317	3,07406735	0,48952494934201152	6	-0,0873835012	0,00150483265
2	1	0	0	0	7624,23	3,1319685	3,13222957	0,52420475023487968	6	-0,084442459	0,00164192962
2	1	0	1	0	7630,03	3,18997383	3,19023156	0,56270341714844288	6	-0,0812888816	0,00179515418
2	1	0	0	0	7635,83	3,24797964	3,24822402	0,60438496038751846	6	-0,0779019222	0,0019631777
2	1	0	0	0	7641,63	3,3059845	3,30616522	0,64612312335520896	6	-0,0742726922	0,00213618972
2	1	0	1	0	7647,43	3,36398983	3,36421728	0,68684513199453517	6	-0,0704028532	0,00231069629
2	1	0	0	0	7653,23	3,42199564	3,42224932	0,7253932454623264	6	-0,0663038343	0,00248247664
2	1	0	0	0	7659,03	3,48000073	3,4801507	0,7640538207876169	6	-0,0619812869	0,00265902234
2	1	0	1	0	7664,83	3,53800607	3,53830338	0,80706203418473523	6	-0,0574240237	0,00285563036
2	1	0	0	0	7670,63	3,59601188	3,59627509	0,85777133796363981	6	-0,0525966324	0,00308478181
2	1	0	1	0	7676,43	3,65401721	3,65415692	0,91896906650314496	6	-0,0474445187	0,00335805723
2	1	0	1	0	7682,23	3,71202254	3,71227932	0,99196277620891853	6	-0,0419048518	0,00368244294
2	1	0	0	0	7688,07	3,77042794	3,77074218	1,0794576086724774	6	-0,0358557068	0,00407035649
2	1	0	1	0	7693,88	3,82843351	3,82862377	1,1795827137927213	6	-0,0293072928	0,00451617828
2	1	0	1	0	7699,68	3,88643885	3,88654542	1,2961374300842525	6	-0,0221310109	0,0050374968
2	1	0	0	0	7705,48	3,94444418	3,94446731	1,4327710553382822	6	-0,0142247137	0,0056515187
2	1	0	1	0	7711,28	4,00244999	4,0025897	1,6060929888238499	6	-0,00543075334	0,00642853137
2	1	0	0	0	7717,08	4,06045532	4,06063175	1,8381313638597235	6	0,00453004753	0,00746397441
2	1	0	0	0	7722,88	4,11846066	4,11888409	2,1454189574966733	6	0,0160465222	0,00883673225
2	1	0	1	0	7728,68	4,17646551	4,17682552	2,5437702617297616	6	0,0296013262	0,0106248846
2	0	0	1	1	7734,41	4,16616535	4,16655111	2,1917867670845203	6	0,0440363437	0,00913219154
2	0	0	0	1	7740,21	4,10815954	4,10830784	1,5095760514959658	6	0,0546789914	0,00620180322
2	0	0	1	1	7746,01	4,05015421	4,05025625	0,98415953324486822	6	0,0618422925	0,00398609834
2	0	0	0	1	7751,81	3,99214864	3,99234438	0,58118939942990758	6	0,066324316	0,00232030824
2	0	0	0	1	7757,65	3,93374324	3,93395162	0,27458473636458214	6	0,0687743649	0,0010802031
2	0	0	1	1	7763,45	3,87573791	3,87597966	0,050878328251807712	6	0,0696785897	0,000197203364
2	0	0	0	1	7769,41	3,81613207	3,81611323	-0,11496115258584405	6	0,0694562048	0,000438704767
2	0	0	1	1	7775,21	3,75812674	3,75843191	-0,23667554572845552	6	0,0684180781	0,00088952895
2	0	0	1	1	7781,01	3,7001214	3,70024943	-0,3349992104340345	6	0,0667482391	0,00123958068
2	0	0	0	1	7786,81	3,64211607	3,64217782	-0,41867575282231059	6	0,0645531639	0,00152489159
2	0	0	1	1	7792,61	3,58411074	3,58414531	-0,49111551682775277	6	0,0619047321	0,00176022935
2	0	0	1	1	7798,42	3,52610493	3,52599311	-0,55062794949238534	6	0,058873143	0,00194151036
2	0	0	0	1	7804,22	3,46809983	3,46825194	-0,59526057975987533	6	0,055539757	0,00206451374
2	0	0	1	1	7810,02	3,4100945	3,41020989	-0,6240762838472928	6	0,051993642	0,00212823111
2	0	0	0	1	7815,82	3,35208869	3,35230827	-0,63897354605918272	6	0,048321303	0,00214203633
2	0	0	0	1	7821,62	3,29408336	3,29448676	-0,64248019596561651	6	0,0445970148	0,00211664243
2	0	0	1	1	7827,42	3,23607802	3,23618388	-0,63762588333338406	6	0,0408774763	0,00206347462
2	0	0	0	1	7833,22	3,17807269	3,17810178	-0,62834298967694259	6	0,0372004732	0,00199693791
2	0	0	0	1	7839,02	3,12006736	3,12037086	-0,61615727019185766	6	0,0335865505	0,0019226392
2	0	0	0	1	7840,56	3,10466647	3,105124	-0,6134526783769783	6	0,0326403044	0,00190484663

File: LiCoO2 vs Li_02_CV_C01_loop6.mpt
EC-Lab ASCII FILE
Nb header lines : 3
mode	ox/red	error	control changes	counter inc.	time/s	control/V	Ewe/V	<I>/mA	cycle number	(Q-Qo)/C	P/W
2	0	0	1	0	7840,73	3,10456657	3,10496354	-0,70543074607849126	7	0	0,00219033682
2	0	0	0	0	7846,51	3,0467608	3,04703116	-0,5988810885076727	7	-0,00351727731	0,00182480935
2	0	0	1	0	7852,31	2,98875523	2,98887897	-0,58956857320542259	7	-0,00696648099	0,00176214916
2	0	0	1	0	7858,11	2,93075013	2,93104553	-0,5827448846769609	7	-0,0103679569	0,00170805177
2	0	0	0	0	7863,91	2,87274456	2,87297535	-0,57749600615352486	7	-0,0137339849	0,00165913184
2	0	0	1	0	7869,71	2,81473899	2,81475282	-0,57449919202675501	7	-0,0170767456	0,0016170732
2	0	0	0	0	7875,51	2,75673342	2,75695133	-0,5718740082035465	7	-0,0204036217	0,00157662877
2	0	0	0	0	7881,31	2,69872808	2,6990397	-0,5703429677523664	7	-0,0237195697	0,00153937831
2	0	0	1	0	7887,11	2,64072275	2,641078	-0,56883891501153626	7	-0,0270267818	0,00150234799
2	0	0	0	0	7892,91	2,58271718	2,5828855	-0,56579945438231149	7	-0,0303215124	0,00146139518
2	0	0	0	0	7898,71	2,52471161	2,5251143	-0,56078874982846694	7	-0,033594314	0,00141605572
2	0	0	1	0	7904,51	2,46670651	2,46707201	-0,55187525274232205	7	-0,0368263945	0,00136151596
2	0	0	0	0	7910,31	2,40870094	2,40881944	-0,53740344739829562	7	-0,0399908163	0,00129450788
2	0	0	1	0	7916,11	2,35069561	2,35084772	-0,51694089500233709	7	-0,0430541784	0,0012152493
2	0	0	1	0	7921,91	2,29269004	2,29306626	-0,49251031409949107	7	-0,0459862873	0,00112935877
2	0	0	0	0	7927,72	2,23468471	2,23495412	-0,46677116816863328	7	-0,0487709194	0,00104321213
2	0	0	1	0	7933,52	2,17667913	2,17683172	-0,44319300819188358	7	-0,051411029	0,000964756589
2	0	0	1	0	7939,32	2,11867428	2,11903048	-0,42394065375750323	7	-0,0539264083	0,000898343162
2	0	0	0	0	7945,12	2,06066871	2,06093836	-0,41032246888304691	7	-0,0563467927	0,000845649338
2	0	0	1	0	7950,92	2,00266314	2,00301647	-0,40244838455691814	7	-0,0587045364	0,000806110736
2	0	0	0	0	7956,72	1,94465768	1,94478405	-0,39930657545725626	7	-0,0610295646	0,000776565052
2	0	0	0	0	7962,52	1,88665235	1,88704276	-0,40014178430040736	7	-0,0633494854	0,000755084679
2	0	0	1	0	7968,32	1,82864702	1,8288101	-0,40420465248947398	7	-0,0656835511	0,000739213545
2	0	0	0	0	7974,12	1,77064157	1,77095878	-0,41202650777995494	7	-0,0680518225	0,000729681982
2	0	0	0	0	7979,92	1,71263599	1,71299684	-0,4225824320067968	7	-0,0704745427	0,000723882345
2	0	0	1	0	7985,72	1,65463066	1,65498495	-0,43586395044500749	7	-0,0729686469	0,000721348275
2	0	0	0	0	7991,52	1,59662533	1,59702301	-0,44884428335353779	7	-0,0755377188	0,000716814655
2	0	0	1	0	7997,32	1,5386194	1,53885055	-0,4658646671906048	7	-0,0781923383	0,000716896087
2	0	0	1	0	8003,12	1,48061466	1,48080862	-0,48683104772741715	7	-0,0809558555	0,000720903627
2	0	0	0	0	8008,92	1,42260909	1,42285693	-0,5151226716116071	7	-0,0838613734	0,00073294586
2	0	0	1	0	8014,72	1,36460364	1,36480474	-0,55290100940813504	7	-0,0869572684	0,000754601904
2	0	0	1	0	8020,52	1,30659819	1,30698335	-0,60811524325981555	7	-0,0903180614	0,000794796506
2	0	0	0	0	8026,32	1,24859285	1,24897146	-0,68737806705758157	7	-0,094065465	0,000858515617
2	0	0	1	0	8032,13	1,1905874	1,19106972	-0,79277369535217626	7	-0,0983507112	0,00094424875
2	0	0	1	0	8037,93	1,13258207	1,13294744	-0,91958220861852173	7	-0,10331241	0,00104183832
2	0	0	0	0	8043,77	1,07417655	1,07442427	-1,0672751997287122	7	-0,109108083	0,0011467064
2	0	0	1	0	8049,57	1,01617122	1,01646245	-1,2451998951534389	7	-0,115797207	0,00126569893
2	1	0	0	0	8055,32	1,04127347	1,04130316	-0,88000334644069517	7	-0,122189127	0,000916350284
2	1	0	1	0	8061,12	1,09927893	1,09961581	-0,56878613075241536	7	-0,126308426	0,000625446206
2	1	0	0	0	8066,96	1,15768433	1,15807891	-0,3809922359262905	7	-0,129032597	0,000441219076
2	1	0	0	0	8072,76	1,21568978	1,21590054	-0,26174895100606045	7	-0,130868807	0,000318260689
2	1	0	1	0	8078,56	1,27369523	1,27374196	-0,1802429403566449	7	-0,132133096	0,000229582991
2	1	0	0	0	8084,36	1,33170056	1,33175397	-0,12053519258430878	7	-0,132992759	0,000160523225
2	1	0	1	0	8090,16	1,38970602	1,3900466	-0,074205624987371264	7	-0,133548081	0,000103149279
2	1	0	1	0	8096,00	1,44811141	1,44839931	-0,036452659425170618	7	-0,133864492	5,27980083E-005
2	1	0	0	0	8101,84	1,50651681	1,50680232	-0,0039655217818411334	7	-0,133978441	5,97525741E-006
2	1	0	1	0	8107,68	1,56492233	1,56536543	0,024912757158745082	7	-0,133914635	3,89975685E-005
2	1	0	1	0	8113,48	1,62292767	1,62343764	0,052599754106874253	7	-0,133687243	8,53924212E-005
2	1	0	0	0	8119,28	1,68093312	1,68117893	0,080185080024723904	7	-0,133299634	0,000134805465
2	1	0	1	0	8125,12	1,73933876	1,73952186	0,10832964714306064	7	-0,132745102	0,000188441787
2	1	0	0	0	8130,92	1,79734397	1,7978847	0,1376917040518797	7	-0,132027686	0,000247553806
2	1	0	0	0	8136,73	1,85534954	1,85546529	0,16651217643326835	7	-0,131141067	0,000308957562
2	1	0	1	0	8142,53	1,91335487	1,91363776	0,19490143877919741	7	-0,130088031	0,000372970739
2	1	0	0	0	8148,33	1,97136021	1,97158968	0,21961675786102819	7	-0,128881142	0,000432994129
2	1	0	0	0	8154,13	2,02936578	2,02970171	0,24080782569944813	7	-0,127540544	0,000488768041
2	1	0	1	0	8159,93	2,08737087	2,08760333	0,25768951117061123	7	-0,12608926	0,000537953456
2	1	0	0	0	8165,73	2,14537644	2,14556527	0,27151510367790886	7	-0,124549858	0,000582553388
2	1	0	1	0	8171,53	2,20338178	2,20359731	0,2817598469555369	7	-0,122940958	0,000620885228
2	1	0	1	0	8177,33	2,26138735	2,26169968	0,28998732636682688	7	-0,121278927	0,000655864249
2	1	0	0	0	8183,13	2,31939292	2,31947088	0,29609374251837382	7	-0,119574934	0,000686780841
2	1	0	1	0	8188,93	2,37739801	2,37755299	0,30155325254114931	7	-0,117838442	0,000716958835
2	1	0	1	0	8194,73	2,43540359	2,43552494	0,3058959310874343	7	-0,116074547	0,000745017198
2	1	0	0	0	8200,53	2,49340892	2,49366713	0,30998180426346701	7	-0,114285648	0,000772991451
2	1	0	1	0	8206,33	2,55141449	2,55164909	0,31379833111229069	7	-0,1124743	0,000800703245
2	1	0	0	0	8212,13	2,60942006	2,60955954	0,31834786166860685	7	-0,110637628	0,000830747711
2	1	0	0	0	8217,93	2,66742516	2,6676929	0,32531281149325242	7	-0,108768985	0,000867834664
2	1	0	1	0	8223,73	2,72543073	2,72576523	0,3351345617944985	7	-0,106851839	0,000913498108
2	1	0	0	0	8229,53	2,78343606	2,78375697	0,34874707266377805	7	-0,104866855	0,000970827066
2	1	0	0	0	8235,33	2,84144139	2,84165883	0,37026172115777811	7	-0,102784373	0,00105215749
2	1	0	1	0	8241,14	2,89944673	2,89977098	0,4000543879034608	7	-0,100545458	0,00116006611
2	1	0	0	0	8246,94	2,9574523	2,95783305	0,42271555401384653	7	-0,0981573984	0,00125032209
2	1	0	0	0	8252,74	3,01545644	3,01558447	0,44976568762294054	7	-0,0956261605	0,00135630637
2	1	0	1	0	8258,54	3,0734632	3,07370663	0,48166940004254323	7	-0,0929242969	0,00148051046
2	1	0	0	0	8264,34	3,13146853	3,13158798	0,518682717656096	7	-0,0900226906	0,00162430061
2	1	0	1	0	8270,14	3,18947387	3,18939972	0,56053433939814387	7	-0,0868917629	0,00178776809
2	1	0	1	0	8275,94	3,2474792	3,24768233	0,60563606846456691	7	-0,0835070834	0,00196691346
2	1	0	0	0	8281,74	3,30548453	3,30555391	0,65099398434782963	7	-0,0798592865	0,00215189578
2	1	0	1	0	8287,54	3,3634901	3,36361599	0,69364936463534835	7	-0,0759556219	0,00233317004
2	1	0	0	0	8293,34	3,42149544	3,42176843	0,73256797886763981	7	-0,0718155205	0,00250667799
2	1	0	0	0	8299,14	3,47950077	3,47969961	0,77144073011974438	7	-0,0674511567	0,00268438202
2	1	0	1	0	8304,94	3,5375061	3,53775191	0,81476262894769741	7	-0,0628515035	0,002882428
2	1	0	0	0	8310,74	3,59551144	3,59593439	0,86688444328804698	7	-0,0579765067	0,00311725959
2	1	0	0	0	8316,54	3,65351725	3,65375614	0,93078191019594675	7	-0,0527637117	0,00340085011
2	1	0	1	0	8322,38	3,71192241	3,71205831	1,0092800740773456	7	-0,0471039489	0,00374650653
2	1	0	0	0	8328,18	3,76992774	3,77012062	1,0998756460224541	7	-0,0409904942	0,00414666394
2	1	0	1	0	8333,98	3,82793355	3,82796216	1,2054442306980491	7	-0,0343081355	0,00461439509
2	1	0	1	0	8339,78	3,88593888	3,88606405	1,3268123681967462	7	-0,026967736	0,00515607791
2	1	0	0	0	8345,58	3,94394422	3,94393611	1,4681854387745216	7	-0,0188683067	0,00579042966
2	1	0	1	0	8351,39	4,00194931	4,00220823	1,6464516799896883	7	-0,00985458214	0,00658944249
2	1	0	1	0	8357,19	4,05995464	4,0599885	1,882843916381617	7	0,000353381649	0,00764432456
2	1	0	0	0	8362,99	4,11796045	4,11814213	2,1940687571962698	7	0,0121423258	0,00903548673
2	1	0	1	0	8368,79	4,17596579	4,17632437	2,5986828934401229	7	0,0259976331	0,0108529422
2	0	0	0	1	8374,52	4,16666508	4,16698265	2,2404689114164499	7	0,040766269	0,00933599472
2	0	0	0	1	8380,32	4,10865974	4,10883904	1,5306650521233712	7	0,0516052097	0,00628925627
2	0	0	1	1	8386,12	4,05065441	4,05078745	0,98522388469427776	7	0,0588294566	0,00399093237
2	0	0	0	1	8391,92	3,9926486	3,99268508	0,56745859297613421	7	0,0632739291	0,00226568338
2	0	0	0	1	8397,76	3,93424439	3,93429422	0,24876063023410387	7	0,0656074807	0,000978697557
2	0	0	1	1	8403,60	3,87583804	3,87602949	0,011713064561869629	7	0,0663282722	4,5400182E-005
2	0	0	0	1	8409,44	3,81743217	3,81772685	-0,16482154815457805	7	0,0658533648	0,000629243674
2	0	0	1	1	8415,24	3,75942683	3,75956464	-0,30116581536519059	7	0,0644840375	0,00113225239
2	0	0	1	1	8421,04	3,7014215	3,70161295	-0,41348864774530189	7	0,0623991154	0,00153057498
2	0	0	0	1	8426,84	3,64341617	3,64367127	-0,51016532722860666	7	0,0597098656	0,00185887469
2	0	0	1	1	8432,64	3,58541083	3,58556914	-0,5943454490043209	7	0,0564958118	0,00213106675
2	0	0	1	1	8438,44	3,52740574	3,52752542	-0,66256045445178995	7	0,0528391562	0,00233719894
2	0	0	0	1	8444,24	3,46939993	3,46938467	-0,71208357267702605	7	0,0488398187	0,00247049192
2	0	0	1	1	8450,05	3,4113946	3,41169333	-0,74142097045356966	7	0,0446111001	0,00252950098
2	0	0	0	1	8455,85	3,35338926	3,35361123	-0,7528673233464343	7	0,0402653776	0,00252482435
2	0	0	0	1	8461,65	3,29538345	3,29553914	-0,74926786512757286	7	0,0359002762	0,00246924162
2	0	0	1	1	8467,45	3,23737812	3,23758745	-0,73541688841457242	7	0,031588424	0,00238097645
2	0	0	0	1	8473,25	3,17937279	3,17942524	-0,71551006954784141	7	0,0273764804	0,00227491069
2	0	0	0	1	8479,05	3,12136817	3,12161255	-0,6937024721646345	7	0,0232862644	0,00216547027
2	0	0	0	1	8480,67	3,10516667	3,10528445	-0,68774515106564467	7	0,0221669022	0,00213564443