Folder: thesis/Experimentelles/Rohdaten/Batteriemessungen/AlteZelle/Studenten_Batterietests/Sonstige/ZView-Export (part 5)

File: LiCoO2 vs Li_05_GCPL_C01_loop0.txt
EC-Lab ASCII FILE
Nb header lines : 3
mode	ox/red	error	control changes	Ns changes	counter inc.	Ns	time/s	control/V/mA	Ewe/V	dq/mA.h	<I>/mA	P/W	(Q-Qo)/mA.h	x	Capacity/mA.h
1	0	0	0	1	0	1	14641,14	-0,100000001	3,53030181	0	0	0	0	0	0
1	0	0	0	0	0	1	15851,14	-0,100000001	1,44760013	-0,00027771719084307552	-0,09997818991396247	0,000144728445	-0,033602404681563891	0,0012537508975827435	0,033602404681563891
1	0	0	0	0	0	1	17061,14	-0,100000001	1,07530677	-0,00027771763620277245	-0,099978350243455309	0,000107507396	-0,067206218624923494	0,0025075543766178576	0,067206218624923494
1	0	0	0	0	0	1	18271,14	-0,100000001	1,09539461	-0,00027771767331659798	-0,099978363604432653	0,000109515764	-0,10080999961796534	0,0037613566262323136	0,10080999961796534
1	0	0	0	0	0	1	19481,14	-0,100000001	1,13169396	-0,00027771674780464835	-0,099978030420126758	0,000113144531	-0,13441376420926426	0,005015158263875689	0,13441376420926426
1	0	0	0	0	0	1	20691,14	-0,100000001	1,14295995	-0,00027771681943163274	-0,099978056205841446	0,000114270915	-0,16801753237162336	0,0062689600347601216	0,16801753237162336
1	0	0	0	0	0	1	21901,14	-0,100000001	1,14645433	-0,00027771706293481917	-0,099978143866989619	0,000114620379	-0,20162124511166256	0,0075227597377632819	0,20162124511166256
1	0	0	0	0	0	1	23111,14	-0,100000001	1,14693177	-0,00027771716100350022	-0,099978179171715226	0,000114668146	-0,23522500972486422	0,0087765613762238771	0,23522500972486422
1	0	0	0	0	0	1	24321,14	-0,100000001	1,14534688	-0,00027771652107147706	-0,099977948796184115	0,000114509428	-0,26882873988741546	0,010030361729284387	0,26882873988741546
1	0	0	0	0	0	1	25531,14	-0,100000001	1,14326549	-0,00027771520151239302	-0,099977473754908109	0,000114300798	-0,30243241138709101	0,01128415989355413	0,30243241138709101
1	0	0	0	0	0	1	26741,14	-0,100000001	1,14047766	-0,0002777165777422488	-0,099977969197662195	0,000114022638	-0,33603606855499501	0,012537957523086211	0,33603606855499501
1	0	0	0	0	0	1	27951,14	-0,100000001	1,13744152	-0,00027771596942717827	-0,09997775020423415	0,000113718845	-0,36963973484190266	0,013791755492860574	0,36963973484190266
1	0	0	0	0	0	1	29161,14	-0,100000001	1,13377535	-0,00027771565518445437	-0,09997763707685216	0,00011335218	-0,40324336239644493	0,015045552017478314	0,40324336239644493
1	0	0	0	0	0	1	30371,14	-0,100000001	1,13051009	-0,0002777167569357488	-0,099978033707322957	0,000113026173	-0,43684698630225779	0,01629934840595705	0,43684698630225779
1	0	0	0	0	0	1	31581,14	-0,100000001	1,12734032	-0,00027771695392040742	-0,099978104621800909	0,000112709349	-0,47045063157013907	0,017553145591483277	0,47045063157013907
1	0	0	0	0	0	1	32791,14	-0,100000001	1,12447608	-0,00027771553466717402	-0,099977592293959872	0,000112422407	-0,50405426778344621	0,018806942439171174	0,50405426778344621
1	0	0	0	0	0	1	34001,14	-0,100000001	1,12096262	-0,00027771606997276349	-0,099977785003971725	0,000112071357	-0,53765789547505126	0,020060738968902912	0,53765789547505126
1	0	0	0	0	0	1	35211,14	-0,100000001	1,11794567	-0,00027771537900550499	-0,09997753625575913	0,000111769456	-0,57126145136334586	0,021314532819556589	0,57126145136334586
1	0	0	0	0	0	1	36421,14	-0,100000001	1,11445129	-0,00027771620765080054	-0,099977834568064973	0,000111420428	-0,60486503101332544	0,022568327556790685	0,60486503101332544
1	0	0	0	0	0	1	37631,14	-0,100000001	1,11151063	-0,00027771587119292883	-0,099977713443231373	0,00011112629	-0,63846867720905126	0,023822124776936045	0,63846867720905126
1	0	0	0	0	0	1	38841,14	-0,100000001	1,10864651	-0,00027771590931092701	-0,099977727165710694	0,000110839959	-0,67207231601859046	0,025075921721492848	0,67207231601859046
1	0	0	0	0	0	1	40051,14	-0,100000001	1,10459828	-0,00027771534395052326	-0,099977523635965722	0,000110435001	-0,7056759097022281	0,02632971698234159	0,7056759097022281
1	0	0	0	0	0	1	41261,14	-0,100000001	1,10076022	-0,00027771532331365677	-0,099977516206693798	0,000110051275	-0,73927941012339482	0,027583508763442157	0,73927941012339482
1	0	0	0	0	0	1	42471,14	-0,100000001	1,09833515	-0,00027771517030646403	-0,099977461124104512	0,00010980876	-0,77288295221629427	0,028837302099371091	0,77288295221629427
1	0	0	0	0	0	1	43681,14	-0,100000001	1,09436345	-0,0002777141183279455	-0,099977082411838554	0,000109411267	-0,80648644388983296	0,030091093554085888	0,80648644388983296
1	0	0	0	0	0	1	44891,14	-0,100000001	1,09193838	-0,00027771468919184474	-0,099977287922841894	0,000109169036	-0,84008994181175053	0,031344885241936115	0,84008994181175053
1	0	0	0	0	0	1	46101,14	-0,100000001	1,08974254	-0,00027771470611790816	-0,099977294016224704	0,000108949513	-0,87369347150906995	0,032598678115369286	0,87369347150906995
1	0	0	0	0	0	1	47311,14	-0,100000001	1,08813858	-0,00027771570119717059	-0,099977652244758515	0,000108789543	-0,90729700375093888	0,033852471083743034	0,90729700375093888
1	0	0	0	0	0	1	48521,14	-0,100000001	1,08619082	-0,0002777151131104264	-0,099977440533531008	0,000108594577	-0,94090055566603866	0,035106264786151475	0,94090055566603866
1	0	0	0	0	0	1	49731,14	-0,100000001	1,08485425	-0,00027771660638228054	-0,099977978111397491	0,000108461536	-0,97450417381254106	0,036360060959742598	0,97450417381254106
1	1	0	1	0	0	2	50931,14	0,100000001	1,36100471	0,00027782498322758406	0,1000169937756341	0,000136123606	-0,99171943123886656	0,037002385360478586	0,008056913953204951
1	1	0	1	0	0	2	52141,14	0,100000001	1,6997484	0,00027782436152713168	0,10001676996347165	0,000170003346	-0,95810264983353984	0,035748098048002541	0,041673695358531744
1	1	0	1	0	0	2	53351,14	0,100000001	1,81928253	0,00027782357438819274	0,10001648659345416	0,000181958254	-0,92448590040063885	0,034493811928460685	0,075290444791432832
1	1	0	1	0	0	2	54561,14	0,100000001	1,89358079	0,00027782459840468234	0,10001685523938973	0,00018938999	-0,89086917823960525	0,033239526826468864	0,10890716695246685
1	1	0	1	0	0	2	55771,14	0,100000001	1,95141923	0,00027782420158220662	0,10001671238329875	0,000195174536	-0,85725243373271949	0,03198524089072327	0,14252391145935242
1	1	0	1	0	0	2	56981,14	0,100000001	2,00133348	0,0002778233445092208	0,10001640383702442	0,000200166178	-0,82363569854706893	0,030730955302765485	0,17614064664500333
1	1	0	1	0	0	2	58191,14	0,100000001	2,05754876	0,00027782465102689133	0,10001687418338493	0,000205789591	-0,79001895783818227	0,029476669508728333	0,20975738735388998
1	1	0	1	0	0	2	59401,14	0,100000001	2,16148233	0,0002778238243626224	0,10001657658424867	0,000216184068	-0,75640226295037376	0,028222385424337213	0,24337408224169891
1	1	0	1	0	0	2	60611,14	0,100000001	2,25563931	0,00027782468399529651	0,10001688605201078	0,000225602023	-0,72278560109025267	0,026968102572253523	0,27699074410182
1	1	0	1	0	0	2	61821,14	0,100000001	2,30249834	0,00027782472062028118	0,10001689923700523	0,000230288744	-0,68916887277212698	0,025713817240532326	0,31060747241994643
1	1	0	1	0	0	2	63031,14	0,100000001	2,34567189	0,00027782355901060832	0,10001648105752378	0,000234605846	-0,65555215820958874	0,024459532422050592	0,34422418698248429
1	1	0	1	0	0	2	64241,14	0,100000001	2,39419198	0,00027782398591935638	0,1000166347446728	0,000239459026	-0,62193547182069158	0,023205248654765277	0,37784087337138125
1	1	0	1	0	0	2	65451,14	0,100000001	2,44614935	0,00027782360022390883	0,10001649589431194	0,000244655297	-0,58831873142670886	0,021950962872477622	0,41145761376536339
1	1	0	1	0	0	2	66661,16	0,100000001	2,49507046	0,00027783124129763907	0,1000172703676232	0,000249550125	-0,5547013121423063	0,020696651759875619	0,44507503304976621
1	1	0	1	0	0	2	67871,19	0,100000001	2,53986716	0,00027783015295242272	0,10001687840342478	0,000254029583	-0,52108386658381254	0,019442339666951949	0,47869247860825946
1	1	0	1	0	0	2	69081,21	0,100000001	2,58179951	0,00027782943339770038	0,10001661917338326	0,000258222863	-0,48746647966157779	0,018188029761825936	0,51230986553049395
1	1	0	1	0	0	2	70291,23	0,100000001	2,61821342	0,00027782985071672336	0,1000167693960931	0,000261865236	-0,45384907232125485	0,016933719094873606	0,54592727287081645
1	1	0	1	0	0	2	71501,26	0,100000001	2,65399742	0,0002778295145912303	0,10001664839359835	0,00026544393	-0,42023172527370976	0,015679410677525882	0,57954461991836134
1	1	0	1	0	0	2	72711,28	0,100000001	2,7261188	0,00027782991450321344	0,10001679235848459	0,000272657664	-0,38661434570390285	0,014425101046728838	0,61316199948816883
1	1	0	1	0	0	2	73921,31	0,100000001	3,01156855	0,00027782937577325437	0,10001659859650974	0,000301206834	-0,35299695257845408	0,013170790910152571	0,64677939261361792
1	1	0	1	0	0	2	75131,33	0,100000001	3,26793671	0,0002778300941226383	0,10001685739394826	0,000326848764	-0,31937956677833312	0,011916481046894136	0,68039677841373888
1	1	0	1	0	0	2	76341,35	0,100000001	3,27419996	0,00027783060702267622	0,10001704203664181	0,000327475806	-0,28576208035775923	0,010662167429351315	0,71401426483431258
1	1	0	1	0	0	2	77551,38	0,100000001	3,294765	0,00027782981483638288	0,10001675685288317	0,0003295317	-0,25214465125466061	0,0094078559504005619	0,74763169393741107
1	1	0	1	0	0	2	78761,40	0,100000001	3,34637856	0,00027782992834680611	0,10001679770418475	0,000334694079	-0,21852721328730144	0,0081535441407123277	0,78124913190477056
1	1	0	1	0	0	2	79971,43	0,100000001	3,43904614	0,00027783130727294416	0,10001729390519101	0,000343964086	-0,18490969735466429	0,0068992294220347482	0,81486664783740774
1	1	0	1	0	0	2	81181,45	0,100000001	3,56092906	0,00027783046025575866	0,10001698882668195	0,00035615341	-0,15129214218150771	0,0056449132392406298	0,84848420301056499
1	1	0	1	0	0	2	82391,47	0,100000001	3,6559453	0,00027782959636466371	0,10001667783203467	0,000365655491	-0,11767466993099344	0,0043906001504017862	0,88210167526107942
1	1	0	1	0	0	2	83601,50	0,100000001	3,71428013	0,00027783061683757437	0,10001704519502147	0,000371491333	-0,084057212098193459	0,0031362875995072467	0,91571913309387942
1	1	0	1	0	0	2	84811,52	0,100000001	3,75187802	0,00027782823034955398	0,10001618610309421	0,000375248521	-0,050439786537490541	0,001881976252728039	0,94933655865458214
1	1	0	1	0	0	2	86021,55	0,100000001	3,77973747	0,00027782945405195158	0,10001662682751408	0,000378036581	-0,016822426335601923	0,0006276673445740695	0,98295391885647117
1	1	0	1	0	0	2	86641,14	0,100000001	3,79190111	0,00026610527083981366	0,10001662142829163	0,00037925315	0,00039126879591726624	-1,4598764842164294E-005	1,0001676139879904

File: LiCoO2 vs Li_05_GCPL_C01_loop2.txt
EC-Lab ASCII FILE
Nb header lines : 3
mode	ox/red	error	control changes	Ns changes	counter inc.	Ns	time/s	control/V/mA	Ewe/V	dq/mA.h	<I>/mA	P/W	(Q-Qo)/mA.h	x	Capacity/mA.h
1	0	0	1	1	0	1	111882,12	-0,100000001	4,19535828	0	0	0	0	0	0
1	0	0	1	0	0	1	112392,13	-0,100000001	3,92386699	-0,00027772279997790858	-0,099978232077754624	0,00039230127	-0,014162478524595946	0,00052842111540756845	0,014162478524595946
1	0	0	1	0	0	1	112902,14	-0,100000001	3,86463451	-0,0002777236527510815	-0,099978539256250509	0,000386380503	-0,028326351910139568	0,0010568942749525053	0,028326351910139568
1	0	0	1	0	0	1	113412,15	-0,100000001	3,82006693	-0,00027772284207327498	-0,099978247046730586	0,000381923601	-0,042490238516895757	0,0015853679277986592	0,042490238516895757
1	0	0	1	0	0	1	113922,16	-0,100000001	3,78033042	-0,00027772357733050979	-0,099978512013434714	0,000377951801	-0,056654123679501747	0,0021138415267616272	0,056654123679501747
1	0	0	1	0	0	1	114432,17	-0,100000001	3,74317169	-0,00027772349738743571	-0,099978483326588774	0,000374236639	-0,07081802383673527	0,0026423156851943094	0,07081802383673527
1	0	0	1	0	0	1	114942,18	-0,100000001	3,70738792	-0,00027772108460134928	-0,0999776143693424	0,000370655791	-0,084981879436383693	0,0031707881811235827	0,084981879436383693
1	0	0	1	0	0	1	115452,19	-0,100000001	3,67156577	-0,00027772277005637683	-0,099978221493600218	0,000367076602	-0,099145747400485862	0,0036992611383872499	0,099145747400485862
1	0	0	1	0	0	1	115962,20	-0,100000001	3,63501835	-0,00027772216235266794	-0,099978002639625421	0,000363421888	-0,11330959275075341	0,0042277332518983424	0,11330959275075341
1	0	0	1	0	0	1	116472,21	-0,100000001	3,59677124	-0,00027772146815268528	-0,099977752443930368	0,000359597092	-0,12747340853011238	0,0047562042620790778	0,12747340853011238
1	0	0	1	0	0	1	116982,22	-0,100000001	3,55671	-0,00027772144060374963	-0,099977742900112205	0,000355591852	-0,1416372234426079	0,0052846752399159718	0,1416372234426079
1	0	0	1	0	0	1	117492,23	-0,100000001	3,51443386	-0,00027772289349014557	-0,099978265750805645	0,000351366994	-0,15580106549856112	0,0058131472305117683	0,15580106549856112
1	0	0	1	0	0	1	118002,24	-0,100000001	3,47000003	-0,00027772312373419603	-0,099978348441639667	0,000346924877	-0,16996492619273901	0,0063416199165247859	0,16996492619273901
1	0	0	1	0	0	1	118512,25	-0,100000001	3,42281651	-0,00027772178281512525	-0,099977866093772915	0,000342205894	-0,18412879079280429	0,006870092748271712	0,18412879079280429
1	0	0	1	0	0	1	119022,26	-0,100000001	3,37181401	-0,00027772261792628301	-0,099978166457829466	0,000337107776	-0,19829263891726397	0,0073985649652916442	0,19829263891726397
1	0	0	1	0	0	1	119532,27	-0,100000001	3,31645799	-0,00027772324764273235	-0,099978393047685594	0,000331574149	-0,21245651760857837	0,0079270383228020224	0,21245651760857837
1	0	0	1	0	0	1	120042,28	-0,100000001	3,25586987	-0,00027772186314066256	-0,099977895009231027	0,000325515022	-0,22662034637654851	0,0084555098176053043	0,22662034637654851
1	0	0	1	0	0	1	120552,29	-0,100000001	3,18961048	-0,00027772176237445738	-0,099977858369821952	0,000318890437	-0,24078416465070954	0,0089839809208704576	0,24078416465070954
1	0	0	1	0	0	1	121062,30	-0,100000001	3,11668706	-0,00027772204855084416	-0,099977961439003763	0,000311600015	-0,25494798865860518	0,00951245223806896	0,25494798865860518
1	0	0	1	0	0	1	121572,31	-0,100000001	3,03478885	-0,0002777217858541343	-0,099977867186921638	0,000303411711	-0,2691118082352177	0,01004092338993033	0,2691118082352177
1	0	0	1	0	0	1	122082,32	-0,100000001	2,94130015	-0,00027772173105676966	-0,099977847088693978	0,00029406487	-0,28327563162850451	0,01056939468419695	0,28327563162850451
1	0	0	1	0	0	1	122592,33	-0,100000001	2,83270764	-0,00027772142622164554	-0,099977737499193779	0,000283207715	-0,29743942149410016	0,011097864727500333	0,29743942149410016
1	0	0	1	0	0	1	123102,34	-0,100000001	2,70933533	-0,00027772098996034928	-0,099977580670530086	0,000270872784	-0,3116032129838752	0,011626334831404037	0,3116032129838752
1	0	0	1	0	0	1	123612,35	-0,100000001	2,5749836	-0,00027772044461344682	-0,099977383977087398	0,000257440115	-0,32576700172448634	0,012154804832732733	0,32576700172448634
1	0	0	1	0	0	1	124122,36	-0,100000001	2,43169546	-0,00027772118131071328	-0,099977649426110272	0,000243115195	-0,33993075934842861	0,012683273673056682	0,33993075934842861
1	0	0	1	0	0	1	124632,37	-0,100000001	2,25831366	-0,00027772177053905194	-0,099977861673309978	0,000225781376	-0,35409456245010406	0,013211744210216	0,35409456245010406
1	0	0	1	0	0	1	125142,38	-0,100000001	1,9900111	-0,00027772127576710451	-0,099977683186490176	0,000198956695	-0,36825836211163002	0,013740214619018714	0,36825836211163002
1	0	0	1	0	0	1	125652,39	-0,100000001	1,6999011	-0,00027772229439889392	-0,099978050223046234	0,000169952793	-0,38242219835608512	0,014268686392779699	0,38242219835608512
1	0	0	1	0	0	1	126162,40	-0,100000001	1,5041784	-0,00027772163036589824	-0,099977811171236326	0,000150384469	-0,39658603779948774	0,014797158285897722	0,39658603779948774
1	1	0	0	0	0	2	126660,94	0,100000001	2,8883872	0,00027782967628124688	0,10001670676444144	0,000288886979	-0,38376477240915174	0,01431877963580963	0,013335829042525755
1	1	0	0	0	0	2	127170,95	0,100000001	3,17926002	0,00027782969395940496	0,10001671333686674	0,000317979138	-0,36959545570946086	0,013790103378895245	0,027505145742216467
1	1	0	0	0	0	2	127680,96	0,100000001	3,39533806	0,00027783048053375549	0,10001699612545219	0,000339591526	-0,35542612836971558	0,013261426724986128	0,041674473081961702
1	1	0	0	0	0	2	128190,97	0,100000001	3,52573705	0,00027783008524444368	0,10001685408142872	0,000352633127	-0,34125679915783322	0,012732750001225053	0,055843802293844102
1	1	0	0	0	0	2	128700,98	0,100000001	3,6051147	0,00027783018849252	0,10001689136527002	0,000360572361	-0,32708747382796646	0,012204073422307203	0,070013127623710758
1	1	0	0	0	0	2	129210,99	0,100000001	3,66012716	0,00027783004165523581	0,10001683813230792	0,000366074353	-0,31291813445838579	0,011675396319548749	0,084182466993291354
1	1	0	0	0	0	2	129721,00	0,100000001	3,70171571	0,0002778301902703113	0,10001689198314002	0,000370234106	-0,2987487946542743	0,011146719200577368	0,098351806797402573
1	1	0	0	0	0	2	130231,01	0,100000001	3,73543739	0,00027783086728387408	0,10001713566594773	0,000373607734	-0,28457942762120048	0,010618041065656792	0,11252117383047656
1	1	0	0	0	0	2	130741,02	0,100000001	3,76425147	0,00027783012318445578	0,10001686748224698	0,000376488635	-0,27041009447237747	0,010089364195003171	0,12669050697929962
1	1	0	0	0	0	2	131251,03	0,100000001	3,78981972	0,0002778249937581519	0,10001698210405838	0,000379046338	-0,25624083337249741	0,0095606900125924851	0,14085976807917952
1	1	0	0	0	0	2	131761,03	0,100000001	3,81355453	0,00027782566218657622	0,10001722273825349	0,000381421123	-0,24207175189226621	0,0090320225320323942	0,15502884955941075
1	1	0	0	0	0	2	132271,03	0,100000001	3,83635402	0,00027782513841489949	0,10001703418047936	0,000383700739	-0,22790267082767808	0,0085033550669805082	0,16919793062399888
1	1	0	0	0	0	2	132781,03	0,100000001	3,85844684	0,00027782507652747962	0,10001701190101168	0,000385910331	-0,21373360941455667	0,0079746883351512678	0,18336699203712026
1	1	0	0	0	0	2	133291,03	0,100000001	3,87998581	0,00027782514265096851	0,10001703570546397	0,000388064684	-0,19956452650460592	0,0074460208012464205	0,19753607494707104
1	1	0	0	0	0	2	133801,03	0,100000001	3,9006083	0,00027782563919532634	0,1000172144614048	0,000390127971	-0,18539545693729274	0,006917353765173321	0,21170514451438422
1	1	0	0	0	0	2	134311,03	0,100000001	3,91991329	0,00027782501801144746	0,10001699083524341	0,000392057933	-0,17122638915152582	0,0063886867955721088	0,2258742123001511
1	1	0	0	0	0	2	134821,03	0,100000001	3,93776703	0,00027782473223904768	0,10001688795719558	0,000393843191	-0,15705732966934915	0,0058600201357890112	0,24004327178232778
1	1	0	0	0	0	2	135331,03	0,100000001	3,95499063	0,00027782492533077795	0,10001695747020762	0,000395566138	-0,14288827592604638	0,005331353690131015	0,2542123255256305
1	1	0	0	0	0	2	135841,03	0,100000001	3,97211862	0,00027782408641071779	0,10001665545903322	0,000397278025	-0,12871921314809165	0,0048026869073780077	0,26838138830358522
1	1	0	0	0	0	2	136351,03	0,100000001	3,98911309	0,00027782477013849549	0,10001690160099466	0,000398978736	-0,11455016207921739	0,0042740205615065357	0,28255043937245949
1	1	0	0	0	0	2	136861,03	0,100000001	4,00627947	0,0002778247443354792	0,10001689231191026	0,00040069563	-0,10038109311938558	0,0037453535480993824	0,29671950833229114
1	1	0	0	0	0	2	137371,03	0,100000001	4,02367496	0,00027782431315051184	0,10001673708534629	0,000402434845	-0,08621203737434935	0,0032166870277540198	0,31088856407732742
1	1	0	0	0	0	2	137881,03	0,100000001	4,04162455	0,0002778243191970719	0,10001673926210757	0,000404230115	-0,072042988227918182	0,0026880207536114842	0,3250576132237584
1	1	0	0	0	0	2	138391,03	0,100000001	4,06045198	0,0002778246225780911	0,10001684847925739	0,000406113599	-0,057873924541863565	0,002159353936976049	0,33922667690981299
1	1	0	0	0	0	2	138901,03	0,100000001	4,08008146	0,00027782384238681856	0,10001656761044323	0,00040807575	-0,043704865805549178	0,0016306873050220768	0,35339573564612736
1	1	0	0	0	0	2	139411,03	0,100000001	4,10112381	0,00027782499938582381	0,10001698413001994	0,000410182023	-0,029535822579316224	0,0011020212517700963	0,36756477887236038
1	1	0	0	0	0	2	139921,03	0,100000001	4,12327433	0,00027782468461452259	0,10001687081236923	0,000412396999	-0,015366755036600198	0,00057335429123743814	0,38173384641507654
1	1	0	0	0	0	2	140431,03	0,100000001	4,14678001	0,00027782458553794358	0,10001683514480637	0,000414747803	-0,0011977010052815261	4,4687834833181965E-005	0,3959029004463952
1	1	0	0	0	0	2	140941,03	0,100000001	4,17234802	0,00027782450388040806	0,10001680574809818	0,000417304924	0,012971344861486874	-0,00048397831694072627	0,41007194631316358
1	1	0	0	0	0	2	141451,03	0,100000001	4,19931126	0,00027782442498165699	0,10001677734455224	0,000420001568	0,027140381588048144	-0,0010126441276812174	0,42424098303972486
1	1	0	0	0	0	2	141462,54	0,100000001	4,20003653	4,17847618183328E-005	0,10001670157591894	0,000420073804	0,027459990699669709	-0,0010245691733548389	0,42456059215134637