Folder: thesis/Experimentelles/Rohdaten/Batteriemessungen/AlteZelle/Studenten_Batterietests/Sonstige/ZView-Export (part 4)

File: LiCoO2 vs Li_02_CV_C01_loop9.txt
EC-Lab ASCII FILE
Nb header lines : 3
mode	ox/red	error	control changes	counter inc.	time/s	control/V	Ewe/V	<I>/mA	cycle number	(Q-Qo)/C	P/W
2	0	0	1	0	9761,05	3,10516667	3,1059258	-0,91768693923950195	10	0	0,00285026757
2	0	0	0	0	9766,93	3,04636073	3,04675078	-0,74173747111732877	10	-0,00449322956	0,00225988915
2	0	0	1	0	9772,83	2,98735499	2,98745537	-0,71352877421304589	10	-0,00878691953	0,00213163532
2	0	0	1	0	9778,73	2,92834973	2,92868185	-0,69027472512430682	10	-0,0129300132	0,00202159514
2	0	0	0	0	9784,63	2,869344	2,86956692	-0,67256433035557645	10	-0,0169513449	0,00192996836
2	0	0	1	0	9790,53	2,8103385	2,81041217	-0,65860837372020109	10	-0,0208800491	0,00185096101
2	0	0	0	0	9796,43	2,751333	2,75151801	-0,64796506349618086	10	-0,0247358717	0,0017828875
2	0	0	1	0	9802,33	2,69232774	2,69252396	-0,63977221352979546	10	-0,0285360496	0,00172260206
2	0	0	1	0	9808,23	2,633322	2,63349938	-0,63379198250671283	10	-0,0322959684	0,00166909082
2	0	0	0	0	9814,13	2,5743165	2,5747354	-0,6290165976000352	10	-0,0360251032	0,00161955133
2	0	0	1	0	9820,03	2,515311	2,51554084	-0,62363927935560333	10	-0,0397250429	0,00156879006
2	0	0	0	0	9825,93	2,4563055	2,45650625	-0,61595164456715072	10	-0,0433875024	0,00151308905
2	0	0	0	0	9831,83	2,39729977	2,39757204	-0,6026067341056969	10	-0,046988856	0,00144479307
2	0	0	1	0	9837,73	2,33829427	2,33838725	-0,58155568223446605	10	-0,050489869	0,00135990244
2	0	0	0	0	9843,63	2,27928901	2,27983379	-0,55257029365748166	10	-0,053842172	0,00125976838
2	0	0	1	0	9849,54	2,22028351	2,22047877	-0,51896990509703757	10	-0,0570062101	0,00115236163
2	0	0	1	0	9855,44	2,16127801	2,16146421	-0,48628156119957658	10	-0,0599730574	0,00105108018
2	0	0	0	0	9861,34	2,10227251	2,10260034	-0,45971597156797818	10	-0,0627642125	0,000966598978
2	0	0	1	0	9867,24	2,04326701	2,04358578	-0,44041818752884954	10	-0,0654198974	0,000900032348
2	0	0	0	0	9873,14	1,98426151	1,98457146	-0,42875631091495328	10	-0,06798511	0,000850897515
2	0	0	0	0	9879,04	1,92525601	1,92559707	-0,42352649740253933	10	-0,0704999194	0,000815541367
2	0	0	1	0	9884,94	1,8662504	1,86652243	-0,42217714774112026	10	-0,0729974732	0,00078800309
2	0	0	0	0	9890,84	1,80724502	1,80756831	-0,42569618175427238	10	-0,0755009353	0,000769474951
2	0	0	1	0	9896,74	1,7482394	1,74846363	-0,43255291661868435	10	-0,0780341551	0,000756303023
2	0	0	1	0	9902,64	1,6892339	1,68965971	-0,44250659225508659	10	-0,0806181952	0,000747685554
2	0	0	0	0	9908,54	1,63022828	1,63052487	-0,4534061026448999	10	-0,0832658485	0,000739289913
2	0	0	1	0	9914,44	1,5712229	1,57148051	-0,46587504974256077	10	-0,0859820247	0,000732113549
2	0	0	0	0	9920,34	1,51221752	1,51243603	-0,48332832117254656	10	-0,0887845531	0,00073100318
2	0	0	0	0	9926,24	1,4532119	1,45346177	-0,50586802667627853	10	-0,0917035118	0,000735259848
2	0	0	1	0	9932,14	1,39420652	1,3942169	-0,5376032376661897	10	-0,0947806686	0,000749535509
2	0	0	0	0	9938,04	1,33520103	1,33533263	-0,5824859552085417	10	-0,0980791599	0,0007778125
2	0	0	1	0	9943,94	1,27619541	1,27644861	-0,64981549326330509	10	-0,101704858	0,000829456083
2	0	0	1	0	9949,84	1,21718979	1,21771491	-0,74439372308552448	10	-0,1058091	0,000906459347
2	0	0	0	0	9955,74	1,15818441	1,15860009	-0,86087468545883891	10	-0,110541597	0,000997409457
2	0	0	1	0	9961,65	1,09917891	1,09948552	-0,99251983966678387	10	-0,116008505	0,00109126116
2	0	0	0	0	9967,59	1,03977334	1,04009032	-1,1431782043849435	10	-0,122341454	0,00118900859
2	1	0	1	0	9973,45	1,01877141	1,01885831	-1,0004065170263283	10	-0,129208773	0,00101927249
2	1	0	0	0	9979,35	1,07777691	1,07793283	-0,61295164624849984	10	-0,13384825	0,000660720689
2	1	0	1	0	9985,29	1,13718247	1,13763893	-0,3939362848177552	10	-0,136774734	0,000448157254
2	1	0	0	0	9991,19	1,19618797	1,19647288	-0,2614669722970584	10	-0,138673678	0,00031283815
2	1	0	0	0	9997,09	1,25519335	1,25552738	-0,17379012397335213	10	-0,139936507	0,000218198256
2	1	0	1	0	10002,99	1,31419897	1,314592	-0,1113115016681453	10	-0,1407637	0,000146329214
2	1	0	0	0	10008,89	1,37320447	1,37330568	-0,064522386218110733	10	-0,14127247	8,8608962E-005
2	1	0	1	0	10014,83	1,43260992	1,43273103	-0,027794636242712557	10	-0,141538098	3,98222364E-005
2	1	0	1	0	10020,77	1,4920156	1,49218655	0,0036726999448243661	10	-0,141604424	5,48035359E-006
2	1	0	0	0	10026,71	1,55142117	1,55170214	0,029734296811511699	10	-0,141501904	4,61387717E-005
2	1	0	1	0	10032,61	1,61042655	1,6108067	0,054308866984986822	10	-0,141250119	8,74810867E-005
2	1	0	0	0	10038,51	1,66943192	1,66965067	0,07826756798507017	10	-0,140855983	0,000130679502
2	1	0	0	0	10044,45	1,72883773	1,72909606	0,10246836207807064	10	-0,140315518	0,000177177644
2	1	0	1	0	10050,35	1,78784311	1,78818083	0,12737447232939302	10	-0,139633551	0,000227768585
2	1	0	0	0	10056,25	1,84684861	1,84703481	0,15276389351735542	10	-0,138803378	0,000282160239
2	1	0	1	0	10062,16	1,90585423	1,90612948	0,17727342344975661	10	-0,137824669	0,000337906095
2	1	0	1	0	10068,06	1,9648596	1,9652642	0,20049047920231987	10	-0,136705071	0,000394016766
2	1	0	0	0	10073,96	2,02386522	2,02378726	0,2202844702017801	10	-0,135459259	0,000445808895
2	1	0	1	0	10079,86	2,08287048	2,08309245	0,23696612357161939	10	-0,134105891	0,000493622327
2	1	0	0	0	10085,76	2,14187622	2,1421268	0,25034829586123354	10	-0,13266398	0,000536277774
2	1	0	0	0	10091,66	2,20088053	2,20123219	0,26102696706419514	10	-0,131149456	0,000574580976
2	1	0	1	0	10097,56	2,25988722	2,26023579	0,27023541810922323	10	-0,129576981	0,000610795745
2	1	0	0	0	10103,46	2,31889248	2,31914997	0,27714751288294614	10	-0,127957568	0,000642746629
2	1	0	1	0	10109,36	2,37789822	2,37806439	0,28310121052587878	10	-0,12630114	0,000673232891
2	1	0	0	0	10115,26	2,43690348	2,43710876	0,28828265878061331	10	-0,124612734	0,000702576188
2	1	0	0	0	10121,16	2,49590921	2,49621344	0,29293808923102829	10	-0,122895323	0,00073123601
2	1	0	1	0	10127,06	2,55491471	2,55524755	0,29776393932600832	10	-0,121150598	0,000760860567
2	1	0	0	0	10132,96	2,61392021	2,61437249	0,30333715444430643	10	-0,1193747	0,000793036306
2	1	0	1	0	10138,86	2,67292571	2,67299581	0,31153306695943117	10	-0,117558897	0,000832726597
2	1	0	1	0	10144,76	2,73193121	2,7318399	0,32320309740801536	10	-0,115684509	0,000882939145
2	1	0	0	0	10150,66	2,79093671	2,79119515	0,33914250678693139	10	-0,113729879	0,000946612912
2	1	0	1	0	10156,56	2,84994221	2,85017943	0,36635077488608614	10	-0,111654282	0,00104416546
2	1	0	0	0	10162,46	2,90894771	2,90941453	0,39719808381050758	10	-0,109390594	0,00115561392
2	1	0	0	0	10168,37	2,96795344	2,96846914	0,42193095556770733	10	-0,106973983	0,00125248905
2	1	0	1	0	10174,27	3,0269587	3,02726269	0,4546510783645017	10	-0,10438817	0,0013763482
2	1	0	0	0	10180,17	3,0859642	3,08606696	0,4937080539142089	10	-0,101591423	0,00152361614
2	1	0	1	0	10186,07	3,1449697	3,14507103	0,54140649394442522	10	-0,0985379964	0,00170276186
2	1	0	1	0	10191,97	3,20397496	3,20414543	0,59670792768398682	10	-0,0951797813	0,00191193901
2	1	0	0	0	10197,87	3,26298046	3,26310015	0,65538436779752422	10	-0,0914812908	0,00213858485
2	1	0	1	0	10203,77	3,3219862	3,32195401	0,71113084629177958	10	-0,0874424279	0,00236234395
2	1	0	0	0	10209,67	3,38099146	3,38118887	0,75706033889825267	10	-0,0831028223	0,00255976408
2	1	0	1	0	10215,57	3,43999767	3,44048476	0,7949890463479497	10	-0,0785186887	0,00273514772
2	1	0	1	0	10221,47	3,4990027	3,49916768	0,83179907780140378	10	-0,073718667	0,00291060447
2	1	0	0	0	10227,37	3,55800819	3,55820203	0,87719949769476634	10	-0,0686785728	0,0031212531
2	1	0	1	0	10233,27	3,61701345	3,61708617	0,93822042457759027	10	-0,0633262321	0,00339362421
2	1	0	1	0	10239,20	3,67631865	3,67645216	1,0142986426908749	10	-0,0575425625	0,00372902048
2	1	0	0	0	10245,10	3,73532462	3,73535562	1,1062575221682565	10	-0,0512893908	0,00413226523
2	1	0	1	0	10251,00	3,79433036	3,79450059	1,2155304104089718	10	-0,0444437042	0,00461233081
2	1	0	0	0	10256,90	3,85333586	3,85351467	1,3413914628326875	10	-0,0369035192	0,00516907172
2	1	0	1	0	10262,80	3,91234112	3,91219854	1,484613442483047	10	-0,0285704639	0,00580810243
2	1	0	1	0	10268,70	3,97134662	3,97138286	1,6529914401471616	10	-0,019327376	0,00656466186
2	1	0	0	0	10274,61	4,03035212	4,03063774	1,8664564235756771	10	-0,00896568224	0,00752300955
2	1	0	1	0	10280,51	4,08935785	4,08948183	2,1414410471916198	10	0,00283102086	0,00875738449
2	1	0	0	0	10286,41	4,14836359	4,14841652	2,4963388709972368	10	0,0164743438	0,0103558535
2	0	0	0	1	10292,25	4,19316721	4,19340611	2,725793755302817	10	0,0322474428	0,0114303604
2	0	0	1	1	10298,15	4,13416195	4,13424158	1,843733142440513	10	0,0455708131	0,00762243802
2	0	0	0	1	10304,05	4,07515621	4,07528734	1,192147744198639	10	0,0544330589	0,00485834479
2	0	0	1	1	10309,95	4,01615047	4,01618242	0,69859828239814272	10	0,0599367917	0,0028056982
2	0	0	1	1	10315,89	3,95674539	3,95686769	0,32229158973010906	10	0,0629104003	0,00127526512
2	0	0	0	1	10321,83	3,89734006	3,89737225	0,039463742325703155	10	0,0639414415	0,000153804896
2	0	0	1	1	10327,77	3,83793449	3,83822727	-0,17758576044191933	10	0,0635013059	0,000681614503
2	0	0	0	1	10333,67	3,77892876	3,77913284	-0,35146784192572064	10	0,0619184189	0,00132824364
2	0	0	0	1	10339,57	3,7199235	3,72013855	-0,49752981991817792	10	0,059397772	0,00185087987
2	0	0	1	1	10345,47	3,66091752	3,66098356	-0,6252193901066985	10	0,0560716242	0,00228891801
2	0	0	0	1	10351,37	3,60191226	3,60228968	-0,73598027834668621	10	0,0520429835	0,00265121413
2	0	0	1	1	10357,27	3,54290676	3,54318523	-0,82619251403957965	10	0,0474181026	0,00292735314
2	0	0	1	1	10363,17	3,48390031	3,48396945	-0,89242833127108672	10	0,0423301943	0,00310919294
2	0	0	0	1	10369,07	3,42489576	3,42512631	-0,93001983687281792	10	0,0369363539	0,00318543543
2	0	0	1	1	10374,98	3,36589026	3,36595178	-0,94024985345701491	10	0,0314034969	0,00316483574
2	0	0	0	1	10380,88	3,30688453	3,30691695	-0,92705877001086989	10	0,0258825645	0,00306570646
2	0	0	0	1	10386,78	3,24787879	3,24815607	-0,89732282505655731	10	0,0204907507	0,00291464454
2	0	0	1	1	10392,68	3,18887377	3,18910885	-0,85967154956112781	10	0,0153002404	0,00274158618
2	0	0	0	1	10398,58	3,12986803	3,13000417	-0,81934539042413056	10	0,0103427209	0,00256455457
2	0	0	1	1	10400,98	3,10576653	3,1061666	-0,80412873396506867	10	0,00838996656	0,00249775779

File: LiCoO2 vs Li_04_OCV_C01.txt
EC-Lab ASCII FILE
Nb header lines : 48

Open Circuit Voltage

Run on channel : 1 (SN 6985)
Grouped channel(s) : 1
User :
CE vs. WE compliance from -10 V to 10 V
Electrode connection : standard
Ewe ctrl range : min = 0,00 V, max = 5,00 V
Acquisition started on : 01.22.2015 12:12:33
Saved on :
	File : LiCoO2 vs Li_04_OCV_C01.mpr
	Directory : C:\Hupfer\Studenten Batterietests\
	Host : 192.168.0.2
Device : VMP3 (SN 0324)
Address : 192.168.0.1
EC-Lab for windows v10.33 (software)
Internet server v10.33 (firmware)
Command interpretor v10.32 (firmware)
Electrode material : LATP vs Li
Initial state : charged
Electrolyte : DME:Diox 1:2, 1M LiTFSi
Comments : LATP als Elektrode, normaler Seperator und Elektrolyt, Goldschicht teilweise vorhanden, elektrolytschonend, Probe2
Mass of active material : 0,001 mg
 at x = 0,000
Molecular weight of active material (at x = 0) : 0,001 g/mol
Atomic weight of intercalated ion : 0,001 g/mol
Acquisition started at : xo = 0,000
Number of e- transfered per intercalated ion : 1
for DX = 1, DQ = 26,801 mA.h
Battery capacity : 0,000 A.h
Reference electrode : Li+/Li (-3,020 V)
Electrode surface area : 0,001 cm²
Characteristic mass : 0,001 g
Create one data file per loop
tR (h:m:s)          1:00:0,0000
dER/dt (mV/h)       0,0
dER (mV)            0,00
dtR (s)             5,0000
E range min (V)     0,000
E range max (V)     5,000

Number of loops : 1
Loop 0 from point number 0 to 720

mode	error	time/s	Ewe/V
3	0	11041,1396	3,15944052
3	0	11056,1396	3,41659164
3	0	11071,1396	3,46535993
3	0	11086,1396	3,48938131
3	0	11101,1396	3,50417995
3	0	11116,1396	3,51445293
3	0	11131,1396	3,52188087
3	0	11146,1396	3,5275712
3	0	11161,1396	3,53192472
3	0	11176,1396	3,53557205
3	0	11191,1396	3,53849339
3	0	11206,1396	3,54091859
3	0	11221,1396	3,54290438
3	0	11236,1396	3,54464197
3	0	11251,1396	3,5461123
3	0	11266,1396	3,54741073
3	0	11281,1396	3,54838467
3	0	11296,1396	3,54939675
3	0	11311,1396	3,55017948
3	0	11326,1396	3,5509243
3	0	11341,1396	3,55147791
3	0	11356,1396	3,55208898
3	0	11371,1396	3,55249
3	0	11386,1396	3,55277658
3	0	11401,1396	3,55321574
3	0	11416,1396	3,5535593
3	0	11431,1396	3,55361676
3	0	11446,1396	3,5539794
3	0	11461,1396	3,55411315
3	0	11476,1396	3,55439949
3	0	11491,1396	3,5544951
3	0	11506,1396	3,55447602
3	0	11521,1396	3,55478144
3	0	11536,1396	3,55468607
3	0	11551,1396	3,55476236
3	0	11566,1396	3,55478144
3	0	11581,1396	3,55474329
3	0	11596,1396	3,55476236
3	0	11611,1396	3,55481958
3	0	11626,1396	3,55480051
3	0	11641,1396	3,55478144
3	0	11656,1396	3,55474329
3	0	11671,1396	3,55455232
3	0	11686,1396	3,55457139
3	0	11701,1396	3,55445671
3	0	11716,1396	3,55445671
3	0	11731,1396	3,5543232
3	0	11746,1396	3,55430412
3	0	11761,1396	3,55424666
3	0	11776,1396	3,55411315
3	0	11791,1396	3,55401754
3	0	11806,1396	3,55392218
3	0	11821,1396	3,5538075
3	0	11836,1396	3,55376935
3	0	11851,1396	3,55367398
3	0	11866,1396	3,55344486
3	0	11881,1396	3,55346394
3	0	11896,1396	3,55321574
3	0	11911,1396	3,55312014
3	0	11926,1396	3,55298662
3	0	11941,1396	3,55289102
3	0	11956,1396	3,55273819
3	0	11971,1396	3,55262375
3	0	11986,1396	3,55245185
3	0	12001,1396	3,55239463
3	0	12016,1396	3,55214643
3	0	12031,1396	3,55208898
3	0	12046,1396	3,551898
3	0	12061,1396	3,55182171
3	0	12076,1396	3,55163074
3	0	12091,1396	3,55147791
3	0	12106,1396	3,55143976
3	0	12121,1396	3,55117249
3	0	12136,1396	3,55113435
3	0	12151,1396	3,55098152
3	0	12166,1396	3,55079055
3	0	12181,1396	3,55069518
3	0	12196,1396	3,55052328
3	0	12211,1396	3,55027509
3	0	12226,1396	3,55014133
3	0	12241,1396	3,55012226
3	0	12256,1396	3,55000782
3	0	12271,1396	3,54981685
3	0	12286,1396	3,5496068
3	0	12301,1396	3,5494349
3	0	12316,1396	3,549263
3	0	12331,1396	3,549263
3	0	12346,1396	3,54899573
3	0	12361,1396	3,5489192
3	0	12376,1396	3,54876661
3	0	12391,1396	3,54857564
3	0	12406,1396	3,54832745
3	0	12421,1396	3,54823184
3	0	12436,1396	3,54807901
3	0	12451,1396	3,54798365
3	0	12466,1396	3,54765892
3	0	12481,1396	3,54781175
3	0	12496,1396	3,54758263
3	0	12511,1396	3,54729629
3	0	12526,1396	3,54733443
3	0	12541,1396	3,54706717
3	0	12556,1396	3,54700971
3	0	12571,1396	3,54687619
3	0	12586,1396	3,54670429
3	0	12601,1396	3,54657054
3	0	12616,1396	3,54632235
3	0	12631,1396	3,54626513
3	0	12646,1396	3,54605508
3	0	12661,1396	3,5459404
3	0	12676,1396	3,54580688
3	0	12691,1396	3,54555869
3	0	12706,1396	3,54555869
3	0	12721,1396	3,54532957
3	0	12736,1396	3,54523396
3	0	12751,1396	3,5451386
3	0	12766,1396	3,54485202
3	0	12781,1396	3,54483294
3	0	12796,1396	3,54475665
3	0	12811,1396	3,54452753
3	0	12826,1396	3,54443192
3	0	12841,1396	3,54418373
3	0	12856,1396	3,54406929
3	0	12871,1396	3,54391646
3	0	12886,1396	3,54382086
3	0	12901,1396	3,54372549
3	0	12916,1396	3,54351544
3	0	12931,1396	3,54345822
3	0	12946,1396	3,54338169
3	0	12961,1396	3,54307628
3	0	12976,1396	3,54309535
3	0	12991,1396	3,54292345
3	0	13006,1396	3,54275155
3	0	13021,1396	3,54261804
3	0	13036,1396	3,54248428
3	0	13051,1396	3,54238892
3	0	13066,1396	3,54223609
3	0	13081,1396	3,54206419
3	0	13096,1396	3,5419879
3	0	13111,1396	3,5417397
3	0	13126,1396	3,54160595
3	0	13141,1396	3,54151058
3	0	13156,1396	3,54133868
3	0	13171,1396	3,54128122
3	0	13186,1396	3,54110956
3	0	13201,1396	3,54107118
3	0	13216,1396	3,54089952
3	0	13231,1396	3,54065132
3	0	13246,1396	3,54063201
3	0	13261,1396	3,54051757
3	0	13276,1396	3,54040289
3	0	13291,1396	3,54028845
3	0	13306,1396	3,5400784
3	0	13321,1396	3,54000187
3	0	13336,1396	3,53979182
3	0	13351,1396	3,53967738
3	0	13366,1396	3,53952456
3	0	13381,1396	3,53952456
3	0	13396,1396	3,53937173
3	0	13411,1396	3,53923821
3	0	13426,1396	3,53902817
3	0	13441,1396	3,53887534
3	0	13456,1396	3,53879905
3	0	13471,1396	3,53872252
3	0	13486,1396	3,5387609
3	0	13501,1396	3,53860807
3	0	13516,1396	3,53843617
3	0	13531,1396	3,53826427
3	0	13546,1396	3,53818798
3	0	13561,1396	3,53795886
3	0	13576,1396	3,53797793
3	0	13591,1396	3,53788233
3	0	13606,1396	3,53771067
3	0	13621,1396	3,53750062
3	0	13636,1396	3,53744316
3	0	13651,1396	3,53738594
3	0	13666,1396	3,5372715
3	0	13681,1396	3,53702307
3	0	13696,1396	3,53694677
3	0	13711,1396	3,53683233
3	0	13726,1396	3,53679395
3	0	13741,1396	3,53648853
3	0	13756,1396	3,53643131
3	0	13771,1396	3,53645039
3	0	13786,1396	3,53633571
3	0	13801,1396	3,53624034
3	0	13816,1396	3,53610659
3	0	13831,1396	3,53589654
3	0	13846,1396	3,53585839
3	0	13861,1396	3,5356102
3	0	13876,1396	3,53549552
3	0	13891,1396	3,53549552
3	0	13906,1396	3,5352664
3	0	13921,1396	3,53520918
3	0	13936,1396	3,53513288
3	0	13951,1396	3,53492284
3	0	13966,1396	3,53488445
3	0	13981,1396	3,53480816
3	0	13996,1396	3,53463626
3	0	14011,1396	3,53454089
3	0	14026,1396	3,53452182
3	0	14041,1396	3,53446436
3	0	14056,1396	3,53417802
3	0	14071,1396	3,53419709
3	0	14086,1396	3,53408265
3	0	14101,1396	3,53385353
3	0	14116,1396	3,53385353
3	0	14131,1396	3,53381515
3	0	14146,1396	3,53362417
3	0	14161,1396	3,53356695
3	0	14176,1396	3,5333569
3	0	14191,1396	3,53328061
3	0	14206,1396	3,53329968
3	0	14221,1396	3,53305149
3	0	14236,1396	3,53299403
3	0	14251,1396	3,53303242
3	0	14266,1396	3,5328033
3	0	14281,1396	3,53266954
3	0	14296,1396	3,53266954
3	0	14311,1396	3,53255486
3	0	14326,1396	3,53242135
3	0	14341,1396	3,53232574
3	0	14356,1396	3,53215408
3	0	14371,1396	3,53213477
3	0	14386,1396	3,53202033
3	0	14401,1396	3,5318675
3	0	14416,1396	3,53177214
3	0	14431,1396	3,53163838
3	0	14446,1396	3,53154302
3	0	14461,1396	3,53150463
3	0	14476,1396	3,53140926
3	0	14491,1396	3,53133297
3	0	14506,1396	3,53129458
3	0	14521,1396	3,53118014
3	0	14536,1396	3,53093195
3	0	14551,1396	3,53091288
3	0	14566,1396	3,53068376
3	0	14581,1396	3,53068376
3	0	14596,1396	3,53064537
3	0	14611,1396	3,53049278
3	0	14626,1396	3,53053093
3	0	14641,1396	3,53016806