Folder: thesis/Experimentelles/Rohdaten/Batteriemessungen/AlteZelle/Studenten_Batterietests/Sonstige/ZView-Export (part 2)

File: LiCoO2 vs Li_02_CV_C01_loop1.txt
EC-Lab ASCII FILE
Nb header lines : 3
mode	ox/red	error	control changes	counter inc.	time/s	control/V	Ewe/V	<I>/mA	cycle number	(Q-Qo)/C	P/W
2	0	0	1	0	4340,22	3,10266638	3,10327935	-0,43024680018424986	2	0	0,00133517606
2	0	0	0	0	4346,85	3,03636003	3,0363667	-0,35775849085746701	2	-0,00238557532	0,00108628592
2	0	0	1	0	4353,50	2,96985435	2,97003269	-0,35843958389543571	2	-0,00477051595	0,00106457726
2	0	0	1	0	4360,15	2,90334725	2,90364027	-0,35964587517082803	2	-0,00716338027	0,00104428222
2	0	0	0	0	4366,80	2,83684111	2,83687711	-0,36175296052048698	2	-0,00956765562	0,00102624868
2	0	0	1	0	4373,45	2,77033472	2,7707653	-0,36410034129706534	2	-0,0119853988	0,00100883655
2	0	0	0	0	4380,10	2,70382857	2,70426273	-0,36611663394918106	2	-0,0144179733	0,000990075525
2	0	0	1	0	4386,76	2,63732243	2,63779998	-0,36897223458315008	2	-0,0168671273	0,000973274931
2	0	0	0	0	4393,41	2,57081628	2,57110667	-0,37170528760179923	2	-0,0193347298	0,000955693948
2	0	0	1	0	4400,06	2,50431013	2,5043633	-0,37469849378491558	2	-0,0218220465	0,000938381185
2	0	0	0	0	4406,71	2,43780398	2,43805099	-0,3770969887264073	2	-0,0243260078	0,00091938168
2	0	0	0	0	4413,36	2,37129641	2,37159729	-0,37792760073866458	2	-0,026841417	0,000896292098
2	0	0	1	0	4420,01	2,30479145	2,30516577	-0,3774851265673833	2	-0,0293586943	0,000870165764
2	0	0	0	0	4426,66	2,23828506	2,23853278	-0,37495771772228224	2	-0,0318656117	0,000839355169
2	0	0	1	0	4433,31	2,17177892	2,17187977	-0,37157947096663315	2	-0,0343532562	0,000807025936
2	0	0	0	0	4439,96	2,10527277	2,10568738	-0,36886916620036026	2	-0,03681973	0,000776723144
2	0	0	1	0	4446,61	2,03876662	2,03924513	-0,36717622680589645	2	-0,0392713733	0,000748762337
2	0	0	0	0	4453,26	1,97226048	1,97248197	-0,36816629511304179	2	-0,04171931	0,000726201397
2	0	0	1	0	4459,91	1,90575421	1,90599906	-0,37255621802372205	2	-0,0441841073	0,000710091786
2	0	0	0	0	4466,56	1,83924806	1,8392458	-0,38094555772841062	2	-0,0466917977	0,000700652541
2	0	0	1	0	4473,21	1,77274144	1,77304351	-0,39346096673551046	2	-0,0492700115	0,000697623414
2	0	0	1	0	4479,86	1,70623565	1,70635056	-0,40997587439293779	2	-0,0519456305	0,000699562544
2	0	0	0	0	4486,51	1,63972926	1,64011836	-0,42970226161802925	2	-0,0547412373	0,000704762584
2	0	0	1	0	4493,17	1,57322323	1,57349527	-0,45421189116314067	2	-0,0576823391	0,000714700262
2	0	0	0	0	4499,82	1,50671697	1,50679231	-0,48478298556680512	2	-0,0608052947	0,000730467262
2	0	0	1	0	4506,47	1,44021082	1,44030952	-0,52496475012351904	2	-0,0641624406	0,000756111753
2	0	0	0	0	4513,12	1,37370443	1,37390709	-0,57899678653727002	2	-0,0678305998	0,00079548778
2	0	0	1	0	4519,77	1,30719841	1,30755472	-0,65407367050647731	2	-0,0719233379	0,000855237129
2	0	0	0	0	4526,42	1,24069214	1,24105215	-0,75829673853392525	2	-0,0766046792	0,000941085804
2	0	0	1	0	4533,07	1,17418587	1,17430854	-0,90095972424994035	2	-0,0821025372	0,00105800468
2	0	0	1	0	4539,76	1,10727966	1,10742486	-1,1047827263052242	2	-0,0887777284	0,0012234638
2	0	0	0	0	4546,41	1,04077351	1,04111266	-1,4133453670268282	2	-0,0970857516	0,00147145172
2	0	0	1	0	4553,06	0,974267423	0,974640131	-1,8649268113076659	2	-0,107904688	0,00181763247
2	0	0	0	0	4559,71	0,907761097	0,907946885	-2,657005399465561	2	-0,122590601	0,00241241977
2	0	0	1	0	4566,36	0,84125489	0,841414034	-4,1742945425212173	2	-0,144996822	0,0035123101
2	0	0	0	0	4573,01	0,774748743	0,774851203	-6,0727038433154381	2	-0,179022998	0,00470544165
2	0	0	1	0	4579,66	0,708242536	0,708268285	-7,6255414461096358	2	-0,224935189	0,00540092913
2	0	0	0	0	4586,31	0,641736269	0,642086327	-8,7280537337064742	2	-0,279426694	0,00560416374
2	0	0	1	0	4592,96	0,575230122	0,575413167	-9,9454681749145382	2	-0,34140113	0,00572275324
2	0	0	0	0	4599,65	0,508424103	0,508590341	-11,100809851399134	2	-0,411830992	0,00564576453
2	1	0	1	0	4606,22	0,557328463	0,557689786	-9,1642025088270605	2	-0,479446292	0,00511078211
2	1	0	0	0	4612,87	0,62383461	0,624102294	-7,220780581235872	2	-0,533687651	0,00450650556
2	1	0	1	0	4619,52	0,690340877	0,690615058	-5,6587410072485734	2	-0,576335788	0,0039080116
2	1	0	0	0	4626,21	0,75724709	0,757408559	-4,3858970887959072	2	-0,609773576	0,0033219161
2	1	0	1	0	4632,86	0,823753178	0,823821008	-3,3294640854001043	2	-0,635320127	0,00274288235
2	1	0	0	0	4639,51	0,890259504	0,890434027	-2,4539376876006429	2	-0,654460371	0,00218506972
2	1	0	1	0	4646,16	0,956765652	0,957036912	-1,7260206478337459	2	-0,668285668	0,00165186543
2	1	0	1	0	4652,81	1,02327168	1,02341938	-1,125058869831264	2	-0,677702487	0,00115140702
2	1	0	0	0	4659,46	1,08977807	1,09017277	-0,62872598459944307	2	-0,683471203	0,000685419946
2	1	0	1	0	4666,15	1,15668428	1,15693617	-0,22590618906542659	2	-0,686278462	0,000261359033
2	1	0	0	0	4672,84	1,22359049	1,22376978	0,093491889749808998	2	-0,686675251	0,000114412549
2	1	0	1	0	4679,53	1,29049683	1,29105437	0,3500386964684985	2	-0,68516022	0,000451918982
2	1	0	0	0	4686,18	1,35700297	1,35713601	0,56613910229255859	2	-0,682093263	0,000768327736
2	1	0	1	0	4692,83	1,42350912	1,42395961	0,76183183491229926	2	-0,677665174	0,00108481781
2	1	0	0	0	4699,49	1,49001539	1,49041224	0,95151039430250611	2	-0,671962976	0,0014181427
2	1	0	1	0	4706,18	1,55692184	1,55737603	1,1486635984232016	2	-0,664936662	0,00178890117
2	1	0	1	0	4712,83	1,62342787	1,62364817	1,3578541393702181	2	-0,656607926	0,00220467732
2	1	0	0	0	4719,48	1,68993413	1,69007063	1,5873850199083498	2	-0,646820664	0,00268279272
2	1	0	1	0	4726,13	1,75644028	1,75663352	1,8417271741976294	2	-0,635429859	0,00323523977
2	1	0	0	0	4732,78	1,82294631	1,82303607	2,119757447391745	2	-0,622268319	0,00386439427
2	1	0	1	0	4739,43	1,8894527	1,88963914	2,4252348709851504	2	-0,607163966	0,0045828186
2	1	0	0	0	4746,08	1,95595872	1,9562521	2,7512314772854259	2	-0,589963317	0,00538210245
2	1	0	1	0	4752,73	2,02246499	2,02253437	3,0936215327431814	2	-0,570531785	0,00625695568
2	1	0	0	0	4759,38	2,08897114	2,08919716	3,4160114241143021	2	-0,548865497	0,00713672116
2	1	0	1	0	4766,03	2,15547729	2,15568018	3,661196809262023	2	-0,525251508	0,00789236929
2	1	0	1	0	4772,68	2,22198296	2,2220006	3,6958632510090029	2	-0,500604868	0,00821221061
2	1	0	0	0	4779,33	2,28848958	2,28896618	3,3458283344904557	2	-0,476945132	0,00765848812
2	1	0	1	0	4785,98	2,35499597	2,35522842	2,5183812777201312	2	-0,457131475	0,00593136298
2	1	0	0	0	4792,63	2,42150211	2,42164087	1,6450113449245619	2	-0,443797231	0,00398362661
2	1	0	1	0	4799,28	2,4880085	2,4881537	1,6394603860874925	2	-0,433115304	0,0040792292
2	1	0	0	0	4805,94	2,55451465	2,55471659	1,8965597252050966	2	-0,421445131	0,00484517263
2	1	0	1	0	4812,59	2,62102079	2,6212194	2,2993295211344941	2	-0,407555729	0,00602704706
2	1	0	0	0	4819,24	2,68752718	2,68792248	2,7700560837984086	2	-0,39069739	0,00744569581
2	1	0	1	0	4825,89	2,75403333	2,75411439	3,2022033209602086	2	-0,370788276	0,00881923456
2	1	0	0	0	4832,54	2,82054043	2,82063794	3,5231940426213274	2	-0,348339945	0,00993765518
2	1	0	0	0	4839,19	2,88704562	2,88709998	3,6942021672924346	2	-0,324249953	0,0106655313
2	1	0	1	0	4845,84	2,95355201	2,95373273	3,718807832648352	2	-0,299518943	0,010984364
2	1	0	0	0	4852,49	3,02005816	3,02004528	3,6253911294042995	2	-0,275037497	0,0109488452
2	1	0	1	0	4859,14	3,0865643	3,08669829	3,4518553266922611	2	-0,251472682	0,010654836
2	1	0	0	0	4865,79	3,15307021	3,15313077	3,2172478698194029	2	-0,229252622	0,0101444032
2	1	0	1	0	4872,44	3,21957636	3,21987414	2,8815727153172058	2	-0,208900601	0,00927830115
2	1	0	0	0	4879,09	3,28608298	3,28637695	2,4077143066873107	2	-0,191242665	0,00791265722
2	1	0	1	0	4885,74	3,35258913	3,35258865	1,8923653631160634	2	-0,176987424	0,00634432258
2	1	0	1	0	4892,39	3,41909528	3,41929197	1,5501052100832221	2	-0,16564782	0,00530026248
2	1	0	0	0	4899,04	3,48560119	3,48567462	1,3695112780357378	2	-0,1560072	0,00477367081
2	1	0	1	0	4905,69	3,55210781	3,55238748	1,2884118168925269	2	-0,147210911	0,00457693823
2	1	0	0	0	4912,35	3,61861396	3,6190207	1,2777142953127587	2	-0,138709247	0,00462407432
2	1	0	1	0	4919,00	3,68512011	3,68545341	1,3191768241425307	2	-0,13008745	0,00486176461
2	1	0	0	0	4925,65	3,75162601	3,7518661	1,3778132107108805	2	-0,121118806	0,00516937068
2	1	0	1	0	4932,30	3,81813264	3,81824851	1,4583645053207821	2	-0,111701086	0,00556839816
2	1	0	0	0	4938,95	3,88463879	3,88482118	1,5785414104660323	2	-0,101626113	0,00613235123
2	1	0	1	0	4945,60	3,95114493	3,95129395	1,7570689183970282	2	-0,0905691385	0,00694269594
2	1	0	1	0	4952,25	4,01765156	4,01780796	2,0233819892897174	2	-0,0780536383	0,00812956039
2	1	0	0	0	4958,90	4,08415747	4,08440971	2,4185029876728842	2	-0,063350834	0,00987815671
2	1	0	1	0	4965,55	4,15066338	4,15057135	2,9489335386703386	2	-0,0455669016	0,0122397589
2	0	0	0	1	4972,16	4,1831665	4,18343163	3,0979359932243827	2	-0,0244190451	0,0129600037
2	0	0	1	1	4978,81	4,11666059	4,11679888	2,1099030493448189	2	-0,00725544291	0,00868604612
2	0	0	0	1	4985,46	4,05015421	4,05025625	1,3509064614772797	2	0,00413504289	0,00547151733
2	0	0	1	1	4992,11	3,98364806	3,98363304	0,77763090453421133	2	0,0111119887	0,00309779611
2	0	0	0	1	4998,80	3,91674185	3,91686988	0,36617276204439507	2	0,0148442509	0,00143425108
2	0	0	1	1	5005,45	3,85023522	3,85049725	0,11438125728939941	2	0,0163579769	0,000440424716
2	0	0	1	1	5012,22	3,78252888	3,78279042	-0,034065417820533792	2	0,0165816303	0,000128862332
2	0	0	0	1	5018,92	3,71562266	3,71568704	-0,12859080355459218	2	0,0160141364	0,000477803173
2	0	0	1	1	5025,57	3,64911652	3,64921451	-0,20019336696714208	2	0,0149085214	0,00073054852
2	0	0	0	1	5032,22	3,58261037	3,5829525	-0,25890744213635709	2	0,0133724445	0,000927653047
2	0	0	1	1	5038,87	3,51610398	3,51631975	-0,3080768187840777	2	0,0114776688	0,00108329661
2	0	0	0	1	5045,52	3,44959784	3,44976687	-0,34859767835587238	2	0,00928465649	0,00120258075
2	0	0	1	1	5052,17	3,38309169	3,38342428	-0,38146233092993408	2	0,0068483674	0,00129064894
2	0	0	0	1	5058,82	3,31658554	3,31674099	-0,40682311697552717	2	0,00421971222	0,00134932692
2	0	0	1	1	5065,47	3,25007915	3,25030851	-0,42551691659415878	2	0,00144546235	0,00138306129
2	0	0	0	1	5072,12	3,18357301	3,18398619	-0,43837044663403546	2	-0,00143299135	0,00139576546
2	0	0	0	1	5078,77	3,1170671	3,11726332	-0,44699417442704269	2	-0,00438266527	0,0013933985
2	0	0	1	1	5080,14	3,10326648	3,10351992	-0,44968426227569581	2	-0,00499847904	0,00139560411

File: LiCoO2 vs Li_02_CV_C01_loop2.txt
EC-Lab ASCII FILE
Nb header lines : 3
mode	ox/red	error	control changes	counter inc.	time/s	control/V	Ewe/V	<I>/mA	cycle number	(Q-Qo)/C	P/W
2	0	0	1	0	5080,32	3,10296631	3,10327935	-0,52487051486968992	3	0	0,00162881985
2	0	0	0	0	5086,95	3,03665972	3,03680634	-0,45190830761566758	3	-0,00299610849	0,00137235806
2	0	0	1	0	5093,60	2,97015309	2,97023249	-0,45721110923620858	3	-0,00602334738	0,00135802326
2	0	0	1	0	5100,25	2,90364718	2,90391088	-0,46135250028843686	3	-0,00908194203	0,0013397265
2	0	0	0	0	5106,90	2,83714104	2,83741832	-0,46563314708570758	3	-0,0121690948	0,00132119597
2	0	0	1	0	5113,55	2,77063489	2,77079535	-0,46966089696312883	3	-0,0152829075	0,00130133424
2	0	0	0	0	5120,20	2,70412874	2,7043426	-0,47338394479205357	3	-0,0184224397	0,0012801924
2	0	0	1	0	5126,85	2,63762259	2,63795018	-0,47747316273550221	3	-0,0215880014	0,00125955045
2	0	0	0	0	5133,50	2,57111621	2,57150769	-0,48078085109591482	3	-0,0247777496	0,00123633165
2	0	0	1	0	5140,15	2,50461006	2,50485444	-0,4828148681360007	3	-0,02798599	0,00120938092
2	0	0	0	0	5146,80	2,43810368	2,43836164	-0,48193033070613997	3	-0,0311986264	0,00117512047
2	0	0	0	0	5153,45	2,37159705	2,37196994	-0,47690559911535501	3	-0,0343935527	0,0011312057
2	0	0	1	0	5160,10	2,30509138	2,30519581	-0,46688308473676531	3	-0,0375384241	0,00107625697
2	0	0	0	0	5166,75	2,23858523	2,23895383	-0,4514331996130441	3	-0,0405977778	0,00101073808
2	0	0	1	0	5173,40	2,17207909	2,17233062	-0,4331589258896775	3	-0,043543648	0,000940964383
2	0	0	0	0	5180,05	2,10557294	2,10582781	-0,41486783729245325	3	-0,0463666692	0,000873640238
2	0	0	1	0	5186,71	2,03906655	2,0392251	-0,39985143424322221	3	-0,0490778312	0,000815387059
2	0	0	0	0	5193,36	1,97256029	1,9728626	-0,38945069645221018	3	-0,0517031997	0,000768332742
2	0	0	1	0	5200,01	1,90605426	1,90626979	-0,38502269641806739	3	-0,0542783551	0,00073395716
2	0	0	0	0	5206,66	1,83954787	1,83979714	-0,38574395072646528	3	-0,0568424165	0,000709690619
2	0	0	1	0	5213,31	1,77304184	1,77307379	-0,39245964602256576	3	-0,0594317354	0,000695859897
2	0	0	1	0	5219,96	1,70653546	1,70685172	-0,40481681423261939	3	-0,0620845705	0,000690962304
2	0	0	0	0	5226,61	1,64002943	1,64025891	-0,42036727784822413	3	-0,0648324564	0,000689511187
2	0	0	1	0	5233,26	1,57352328	1,57373595	-0,43909706609944621	3	-0,0676917508	0,00069102284
2	0	0	0	0	5239,91	1,50701702	1,50722325	-0,46274418476969184	3	-0,0706916451	0,000697458803
2	0	0	1	0	5246,56	1,44051075	1,44080079	-0,49553383809204019	3	-0,0738784075	0,000713965565
2	0	0	0	0	5253,21	1,3740046	1,37424791	-0,53944329777732672	3	-0,0773179978	0,000741328811
2	0	0	1	0	5259,86	1,30749834	1,30784535	-0,60187400101373709	3	-0,0811052546	0,000787158089
2	0	0	0	0	5266,51	1,24099207	1,24119222	-0,69347857388978266	3	-0,0853968933	0,000860740198
2	0	0	1	0	5273,16	1,17448592	1,17486	-0,82009168962637875	3	-0,0904147625	0,000963492901
2	0	0	0	0	5279,81	1,10797977	1,10817671	-0,98625547811389146	3	-0,0964031816	0,00109294534
2	0	0	0	0	5286,50	1,04107344	1,04131317	-1,2186425629382338	3	-0,103725187	0,00126898859
2	0	0	1	0	5293,16	0,974567413	0,975111187	-1,6362715965757818	3	-0,113061547	0,00159554672
2	0	0	0	0	5299,81	0,908061206	0,908387959	-2,4517298216621094	3	-0,126396582	0,00222712196
2	0	0	1	0	5306,46	0,84155488	0,841564357	-3,7484836988151142	3	-0,146753892	0,00315459026
2	0	0	0	0	5313,11	0,775048733	0,77527225	-5,5144230375687187	3	-0,177451119	0,004275179
2	0	0	1	0	5319,76	0,708542526	0,708649158	-7,1665766860048166	3	-0,219774827	0,00507858861
2	0	0	0	0	5326,41	0,642036319	0,642296851	-8,5093222583333837	3	-0,272106141	0,00546551077
2	0	0	1	0	5333,06	0,575530112	0,575814128	-9,6218946327765594	3	-0,332437217	0,0055404231
2	0	0	0	0	5339,74	0,508724332	0,509001613	-10,764934588325194	3	-0,400563389	0,00547936885
2	1	0	0	0	5346,34	0,557328463	0,557669759	-8,9831979150573606	3	-0,466845661	0,0050096577
2	1	0	1	0	5352,99	0,62383461	0,624052167	-7,0911083643634957	3	-0,520111859	0,00442522159
2	1	0	0	0	5359,64	0,690340877	0,690474689	-5,519191818932711	3	-0,561877787	0,00381086231
2	1	0	1	0	5366,33	0,75724709	0,757328272	-4,2285602663954054	3	-0,59435147	0,00320240832
2	1	0	0	0	5372,98	0,823753178	0,823971391	-3,1574175407489094	3	-0,618794262	0,00260162167
2	1	0	1	0	5379,63	0,890259504	0,890594423	-2,2770404014736413	3	-0,636763692	0,00202791952
2	1	0	0	0	5386,28	0,956765652	0,957006931	-1,5618046637003626	3	-0,6494326	0,00149465783
2	1	0	0	0	5392,94	1,02327168	1,02351964	-0,99296981872369907	3	-0,657847524	0,00101632415
2	1	0	1	0	5399,59	1,08977807	1,09001231	-0,54043243747825363	3	-0,662881851	0,000589078001
2	1	0	0	0	5406,28	1,15668428	1,15714669	-0,18167485300606755	3	-0,665246904	0,000210224462
2	1	0	1	0	5413,01	1,22399056	1,22427082	0,10168709792196707	3	-0,665474772	0,000124492552
2	1	0	0	0	5419,66	1,29049683	1,2907536	0,32764368442197702	3	-0,664019883	0,000422907266
2	1	0	1	0	5426,31	1,35700297	1,35744679	0,52126966478923718	3	-0,661179781	0,000707595842
2	1	0	0	0	5432,96	1,42350912	1,42373908	0,69979433032373709	3	-0,657110095	0,000996324583
2	1	0	1	0	5439,61	1,49001539	1,49043226	0,87582488389064755	3	-0,651868343	0,00130535767
2	1	0	1	0	5446,29	1,55682254	1,55709672	1,0614798796621158	3	-0,645400822	0,00165282679
2	1	0	0	0	5452,94	1,62332773	1,62376845	1,2602973853548355	3	-0,637687624	0,00204643118
2	1	0	1	0	5459,59	1,68983412	1,6901809	1,4786453178773296	3	-0,628588915	0,00249917805
2	1	0	0	0	5466,24	1,75634027	1,75667357	1,7206620915482419	3	-0,617958665	0,00302264164
2	1	0	1	0	5472,89	1,82284653	1,82304597	1,9881330070396253	3	-0,605638146	0,00362445787
2	1	0	0	0	5479,54	1,88935268	1,88937831	2,2812833103040832	3	-0,591447651	0,00431020698
2	1	0	1	0	5486,19	1,95585871	1,95624208	2,6004749226073328	3	-0,575222015	0,00508715864
2	1	0	0	0	5492,84	2,02236509	2,02240396	2,932039350271225	3	-0,556824148	0,00592976809
2	1	0	1	0	5499,49	2,088871	2,08917737	3,2616289245585645	3	-0,536218286	0,00681412127
2	1	0	0	0	5506,15	2,15537739	2,15541935	3,5504084415733741	3	-0,513513625	0,00765261892
2	1	0	0	0	5512,80	2,22188354	2,22218275	3,702100824564695	3	-0,489272982	0,00822674483
2	1	0	1	0	5519,45	2,28838992	2,28863525	3,5465276613831411	3	-0,464958161	0,00811670814
2	1	0	0	0	5526,10	2,35489607	2,35504818	2,916205576310553	3	-0,443192244	0,00686780456
2	1	0	1	0	5532,75	2,42140222	2,42157078	1,8640251606702768	3	-0,427287221	0,00451386906
2	1	0	0	0	5539,40	2,48790836	2,48817372	1,5764101035892963	3	-0,416301638	0,00392238237
2	1	0	1	0	5546,05	2,55441475	2,55463624	1,7405457155158112	3	-0,405400097	0,00444646133
2	1	0	0	0	5552,70	2,6209209	2,62129951	2,0939657917867152	3	-0,392726094	0,00548891164
2	1	0	1	0	5559,35	2,68742704	2,68772221	2,5289290839185341	3	-0,377361	0,00679705897
2	1	0	0	0	5566,00	2,75393319	2,75419474	2,9355423928548986	3	-0,359150529	0,00808505528
2	1	0	0	0	5572,65	2,8204391	2,82064605	3,2441824624111034	3	-0,338532656	0,0091506904
2	1	0	1	0	5579,30	2,88694572	2,88715005	3,4301751554012301	3	-0,316270053	0,00990343001
2	1	0	0	0	5585,95	2,95345187	2,95362282	3,4860328199962822	3	-0,293198675	0,0102964258
2	1	0	1	0	5592,60	3,01995802	3,02006531	3,4199190661311149	3	-0,270170838	0,0103283785
2	1	0	0	0	5599,25	3,08646441	3,08661819	3,2650626699129645	3	-0,247894853	0,0100780018
2	1	0	1	0	5605,90	3,15297055	3,15304041	3,0528321086118611	3	-0,226857007	0,0096257031
2	1	0	0	0	5612,56	3,2194767	3,21983385	2,7934834907452256	3	-0,207363218	0,00899455231
2	1	0	1	0	5619,21	3,28598261	3,28606582	2,4592956844717194	3	-0,189855933	0,00808140729
2	1	0	0	0	5625,86	3,35248899	3,35277963	2,0668988841455728	3	-0,174790695	0,00692985626
2	1	0	0	0	5632,51	3,41899538	3,4192822	1,7294199646761027	3	-0,162220672	0,00591337495
2	1	0	1	0	5639,16	3,48550153	3,48542404	1,5157022116084883	3	-0,151492804	0,00528286491
2	1	0	0	0	5645,81	3,55200768	3,55243778	1,4022221323102712	3	-0,141834944	0,00498130685
2	1	0	1	0	5652,46	3,61851358	3,61862993	1,3610490985835568	3	-0,132681161	0,00492513319
2	1	0	0	0	5659,11	3,68502021	3,68518305	1,3780388946955426	3	-0,12359371	0,00507832551
2	1	0	1	0	5665,76	3,75152636	3,75167561	1,4206094897041694	3	-0,11428941	0,00532966619
2	1	0	0	0	5672,41	3,8180325	3,81817842	1,4781768101577965	3	-0,104657888	0,00564394286
2	1	0	1	0	5679,06	3,88453841	3,88470125	1,566536940634247	3	-0,094549574	0,00608552806
2	1	0	0	0	5685,71	3,95104504	3,95135427	1,6944668882836922	3	-0,0837289244	0,00669543911
2	1	0	1	0	5692,36	4,01754999	4,01765537	1,8811267079521555	3	-0,0718728602	0,00755771901
2	1	0	1	0	5699,01	4,08405733	4,0841794	2,154289451738201	3	-0,0585024543	0,00879850425
2	1	0	0	0	5705,66	4,15056372	4,15061188	2,5276590983072893	3	-0,0429858826	0,010491332
2	0	0	1	1	5712,24	4,18366623	4,18399334	2,5825831859062144	3	-0,0252413712	0,0108055109
2	0	0	0	1	5718,89	4,11716032	4,11748075	1,7471641904364006	3	-0,0109994765	0,00719391508
2	0	0	1	1	5725,54	4,05065441	4,05057669	1,1319666743899362	3	-0,00153278408	0,00458511803
2	0	0	0	1	5732,19	3,98414803	3,98420453	0,68167232318470822	3	0,00441174069	0,00271592196
2	0	0	1	1	5738,88	3,91724181	3,91733074	0,36096325648638029	3	0,00782613084	0,00141401251
2	0	0	0	1	5745,53	3,85073566	3,85096836	0,15660542564000912	3	0,00948794186	0,000603082532
2	0	0	1	1	5752,22	3,78382945	3,78404474	0,024274451711486662	3	0,0100597702	9,18556107E-005
2	0	0	0	1	5758,95	3,71652389	3,71654987	-0,071414826489661466	3	0,00988400076	0,000265416777
2	0	0	0	1	5765,64	3,64961648	3,64962578	-0,14746043233511408	3	0,00914055668	0,000538175402
2	0	0	1	1	5772,29	3,58311033	3,58335376	-0,21190289555428032	3	0,00793636311	0,000759323011
2	0	0	0	1	5778,94	3,51660419	3,51690125	-0,26641448393153587	3	0,00633695163	0,000936953409
2	0	0	1	1	5785,59	3,45009804	3,45042825	-0,3130293425638233	3	0,00440072594	0,00108008529
2	0	0	0	1	5792,24	3,38359165	3,3835845	-0,35198578230726298	3	0,00218181312	0,00119097368
2	0	0	1	1	5798,89	3,3170855	3,31719208	-0,38335944168890637	3	-0,000270117685	0,00127167685
2	0	0	0	1	5805,54	3,25057936	3,25069976	-0,40855418735494278	3	-0,00290937419	0,00132808695
2	0	0	1	1	5812,19	3,18407321	3,18412662	-0,42758149684717318	3	-0,005695967	0,00136147358
2	0	0	1	1	5818,85	3,11756611	3,11757255	-0,44341078708868301	3	-0,00859867223	0,00138236524
2	0	0	0	1	5820,25	3,10356641	3,10400128	-0,44636935773103213	3	-0,00922193937	0,00138553104