Folder: thesis/Experimentelles/Rohdaten/Batteriemessungen/AlteZelle/Studenten_Batterietests/Sonstige/ZView-Export (part 3)

File: LiCoO2 vs Li_02_CV_C01_loop3.txt
EC-Lab ASCII FILE
Nb header lines : 3
mode	ox/red	error	control changes	counter inc.	time/s	control/V	Ewe/V	<I>/mA	cycle number	(Q-Qo)/C	P/W
2	0	0	1	0	5820,42	3,10336637	3,10376072	-0,51356321573257446	4	0	0,00159397733
2	0	0	0	0	5827,05	3,03705955	3,03706694	-0,45618837031846304	4	-0,00300037581	0,00138547458
2	0	0	1	0	5833,70	2,97055411	2,97073483	-0,46810720595440538	4	-0,00607743766	0,00139062235
2	0	0	1	0	5840,35	2,90404725	2,90432215	-0,4785245188201479	4	-0,00922846235	0,0013897894
2	0	0	0	0	5847,00	2,8375411	2,83774924	-0,48862411811327002	4	-0,0124484217	0,00138659275
2	0	0	1	0	5853,65	2,77103496	2,77132654	-0,49802409671247181	4	-0,0157333165	0,00138018734
2	0	0	0	0	5860,30	2,70452881	2,70479369	-0,507013869471848	4	-0,0190792289	0,00137136795
2	0	0	1	0	5866,95	2,63802266	2,63841152	-0,51556145679205792	4	-0,0224829502	0,00136026333
2	0	0	0	0	5873,60	2,57151628	2,57175827	-0,52230721215407219	4	-0,0259380247	0,00134324795
2	0	0	1	0	5880,25	2,50501013	2,50529552	-0,52689431592201254	4	-0,0294320993	0,001320026
2	0	0	0	0	5886,90	2,43850374	2,43891287	-0,52665897551923987	4	-0,0329419523	0,00128447532
2	0	0	0	0	5893,55	2,37199664	2,37230992	-0,52021231095214304	4	-0,0364317112	0,00123410486
2	0	0	1	0	5900,20	2,30549145	2,30591774	-0,50579547540595194	4	-0,0398517251	0,00116632273
2	0	0	0	0	5906,85	2,2389853	2,23935485	-0,48415725693727475	4	-0,0431499034	0,00108419987
2	0	0	1	0	5913,50	2,17247915	2,17281222	-0,45840528638412595	4	-0,0462882929	0,000996028655
2	0	0	0	0	5920,15	2,10597301	2,10635948	-0,43362304366504282	4	-0,049257081	0,000913366035
2	0	0	1	0	5926,81	2,03946662	2,03985667	-0,41326125509416122	4	-0,0520738736	0,00084299373
2	0	0	0	0	5933,46	1,97296047	1,9731636	-0,39859185523042842	4	-0,0547733419	0,000786486955
2	0	0	1	0	5940,11	1,90645409	1,90692127	-0,39042330013277683	4	-0,0573960468	0,000744506484
2	0	0	0	0	5946,76	1,83994806	1,83991742	-0,38747519999742598	4	-0,0599839501	0,000712922367
2	0	0	1	0	5953,41	1,77344167	1,77355492	-0,39126944914460179	4	-0,0625749379	0,00069393788
2	0	0	1	0	5960,06	1,70693564	1,70731282	-0,40065851590285709	4	-0,0652092993	0,000684049446
2	0	0	0	0	5966,71	1,6404295	1,64088023	-0,41462678446744896	4	-0,067925334	0,00068035291
2	0	0	1	0	5973,36	1,57392323	1,57419717	-0,43055936818321702	4	-0,070736073	0,000677785312
2	0	0	0	0	5980,01	1,50741708	1,50760424	-0,4520404638412103	4	-0,0736713037	0,000681498146
2	0	0	1	0	5986,66	1,44091082	1,44115174	-0,48303512344136832	4	-0,0767796263	0,000696126895
2	0	0	0	0	5993,31	1,37440467	1,37472916	-0,5258957869373271	4	-0,0801314563	0,000722964294
2	0	0	1	0	5999,96	1,30789828	1,30813611	-0,58845220366493043	4	-0,0838267654	0,000769775594
2	0	0	0	0	6006,61	1,24139225	1,24152315	-0,6808258208135767	4	-0,0880319923	0,000845261035
2	0	0	1	0	6013,26	1,17488599	1,17527103	-0,80872686455647629	4	-0,0929721147	0,000950473244
2	0	0	1	0	6019,91	1,10838008	1,10877872	-0,97111624453166861	4	-0,098876439	0,00107675302
2	0	0	0	0	6026,60	1,04147351	1,04178441	-1,1928044343367202	4	-0,10606613	0,00124264508
2	0	0	1	0	6033,26	0,97496742	0,975502133	-1,6005428669353315	4	-0,115193434	0,00156133296
2	0	0	0	0	6039,91	0,908461213	0,908879161	-2,3863324820995347	4	-0,128226891	0,00216888776
2	0	0	1	0	6046,56	0,841954947	0,842185915	-3,5761036624511053	4	-0,147807106	0,00301174424
2	0	0	0	0	6053,21	0,775448859	0,775582969	-5,1768150093654842	4	-0,176854014	0,00401504943
2	0	0	1	0	6059,86	0,708942592	0,708869755	-6,7032561575373094	4	-0,21644333	0,00475173537
2	0	0	0	0	6066,51	0,642436385	0,642787993	-8,0755356997251584	4	-0,265690565	0,00519085722
2	0	0	1	0	6073,16	0,575930178	0,576315343	-9,3000175456205773	4	-0,323544055	0,00535974279
2	0	0	0	0	6079,84	0,50912416	0,509121001	-10,435230188266963	4	-0,389546454	0,00531279482
2	1	0	1	0	6086,43	0,55682838	0,55695796	-8,720564506948023	4	-0,453779578	0,00485698786
2	1	0	0	0	6093,08	0,623334646	0,623540938	-6,8603415936231757	4	-0,505403519	0,00427770382
2	1	0	1	0	6099,73	0,689840794	0,690143943	-5,3240340451399392	4	-0,54573822	0,00367434975
2	1	0	0	0	6106,42	0,756747067	0,756897271	-4,0538496983548019	4	-0,576964915	0,00306834769
2	1	0	1	0	6113,07	0,823253274	0,823610544	-3,0055105450252704	4	-0,60032022	0,00247537019
2	1	0	0	0	6119,72	0,889759362	0,890093148	-2,1486271917819978	4	-0,617357075	0,00191247836
2	1	0	1	0	6126,37	0,956265628	0,956475616	-1,4615463791415094	4	-0,62926954	0,00139793346
2	1	0	1	0	6133,03	1,02277279	1,02292979	-0,92188996296865306	4	-0,637115359	0,000943028717
2	1	0	0	0	6139,68	1,08927786	1,08971167	-0,49851781704152742	4	-0,641776443	0,000543240691
2	1	0	1	0	6146,37	1,1561842	1,15661526	-0,16583981904356461	4	-0,643951714	0,000191812869
2	1	0	0	0	6153,16	1,22409058	1,22423589	0,09929204394575209	4	-0,644137979	0,000121556885
2	1	0	1	0	6159,83	1,29079688	1,29110444	0,30926700471900403	4	-0,642749667	0,000399295997
2	1	0	0	0	6166,48	1,3573029	1,35757709	0,48934943648055194	4	-0,640077829	0,000664329564
2	1	0	1	0	6173,13	1,42380929	1,4240799	0,65689145059635213	4	-0,636259198	0,000935465912
2	1	0	0	0	6179,78	1,49031544	1,49072289	0,82345389761030758	4	-0,631336153	0,00122754159
2	1	0	1	0	6186,45	1,55702174	1,55724072	0,99916195186476122	4	-0,625260949	0,00155593571
2	1	0	1	0	6193,12	1,62372792	1,62404919	1,1892276111369285	4	-0,617964685	0,00193136418
2	1	0	0	0	6199,77	1,69023395	1,69038153	1,3977758747835942	4	-0,609369218	0,00236277445
2	1	0	1	0	6206,42	1,75674033	1,75689435	1,629679653172687	4	-0,599312425	0,002863175
2	1	0	0	0	6213,07	1,82324648	1,82348728	1,8845131906370262	4	-0,587637007	0,00343638589
2	1	0	1	0	6219,72	1,88975275	1,88996994	2,1657322142273187	4	-0,574179947	0,00409316877
2	1	0	0	0	6226,37	1,95625889	1,95652282	2,4696185657133674	4	-0,558777511	0,00483186496
2	1	0	1	0	6233,02	2,02276492	2,02285504	2,7897665513058493	4	-0,541289389	0,00564329326
2	1	0	0	0	6239,68	2,08927131	2,08947825	3,1129708321144205	4	-0,521651864	0,00650448492
2	1	0	1	0	6246,33	2,15577722	2,15598083	3,4089942959447795	4	-0,499932885	0,00734972628
2	1	0	1	0	6252,98	2,22228408	2,2225945	3,6090748488475469	4	-0,476505995	0,00802151021
2	1	0	0	0	6259,63	2,28878975	2,28922677	3,5682385824620723	4	-0,452445477	0,00816850737
2	1	0	1	0	6266,28	2,35529613	2,35545874	3,1189463548362182	4	-0,429958493	0,00734654954
2	1	0	0	0	6272,93	2,42180228	2,4218514	2,1779271929214374	4	-0,412092179	0,00527461618
2	1	0	1	0	6279,58	2,48830843	2,48831415	1,5938481874763894	4	-0,400116593	0,00396599481
2	1	0	0	0	6286,23	2,55481458	2,55531812	1,645357189079128	4	-0,389519244	0,00420441106
2	1	0	1	0	6292,88	2,62132096	2,62159014	1,9228398377696685	4	-0,377742022	0,00504089799
2	1	0	0	0	6299,53	2,68782711	2,68799281	2,2986887215326205	4	-0,363724828	0,00617885869
2	1	0	1	0	6306,18	2,75433326	2,75435519	2,6650350385655894	4	-0,347184747	0,0073404531
2	1	0	0	0	6312,83	2,82083821	2,8208971	2,952487976495984	4	-0,328451902	0,00832866505
2	1	0	0	0	6319,48	2,88734579	2,88749075	3,1395159165064467	4	-0,308134258	0,00906532351
2	1	0	1	0	6326,13	2,95385194	2,95413399	3,2204524353146483	4	-0,286923915	0,00951364823
2	1	0	0	0	6332,78	3,02035809	3,02026582	3,1950973483423155	4	-0,265530288	0,00965004321
2	1	0	1	0	6339,43	3,08686447	3,08711934	3,0878719575703072	4	-0,24459666	0,00953262951
2	1	0	0	0	6346,09	3,15337014	3,15360188	2,9268731952955322	4	-0,224572018	0,00923019275
2	1	0	1	0	6352,74	3,21987677	3,22004437	2,7279505965610333	4	-0,205734566	0,00878412183
2	1	0	0	0	6359,39	3,28638291	3,28658724	2,4837565782169405	4	-0,188372001	0,00816308241
2	1	0	1	0	6366,04	3,35288906	3,35314965	2,1912288987647875	4	-0,172797814	0,00734751858
2	1	0	1	0	6372,69	3,41939497	3,41978312	1,8964725223680291	4	-0,159225225	0,00648552459
2	1	0	0	0	6379,34	3,48590159	3,48599553	1,661031764000647	4	-0,147440091	0,0057903491
2	1	0	1	0	6385,99	3,55240774	3,55251837	1,5146835750589763	4	-0,136923507	0,00538094109
2	1	0	0	0	6392,64	3,61891389	3,61925125	1,4437625308831514	4	-0,127124935	0,00522533944
2	1	0	1	0	6399,29	3,68542027	3,68560386	1,4365839641541243	4	-0,117569655	0,0052946792
2	1	0	0	0	6405,94	3,75192642	3,75221658	1,4622238529846074	4	-0,107934296	0,00548658054
2	1	0	1	0	6412,59	3,81843257	3,81845903	1,5020643770694698	4	-0,0980848819	0,0057355715
2	1	0	0	0	6419,24	3,88493872	3,8850317	1,570441010718544	4	-0,0878833011	0,00610121293
2	1	0	1	0	6425,89	3,9514451	3,95179534	1,6744449498752694	4	-0,0771120861	0,00661706366
2	1	0	0	0	6432,54	4,01795053	4,01819611	1,8279270578995082	4	-0,0654921085	0,00734496955
2	1	0	0	0	6439,19	4,0844574	4,08460045	2,0508092983315363	4	-0,0526336282	0,00837673619
2	1	0	1	0	6445,84	4,15096331	4,15074205	2,358000845337905	4	-0,0380177423	0,00978745334
2	0	0	0	1	6452,43	4,1831665	4,18324137	2,355957444757216	4	-0,0216198787	0,00985553861
2	0	0	1	1	6459,08	4,11666059	4,11693907	1,5937133363137549	4	-0,00863914657	0,00656122062
2	0	0	0	1	6465,73	4,05015421	4,05044651	1,0425938811774067	4	2,58263044E-005	0,00422297092
2	0	0	1	1	6472,38	3,98364806	3,98378372	0,64291630964726029	4	0,00555291353	0,00256123953
2	0	0	0	1	6479,07	3,91674185	3,91706038	0,3591784228725975	4	0,0088410778	0,00140692352
2	0	0	1	1	6485,72	3,85023522	3,85038686	0,17491294226298691	4	0,0105665838	0,000673482486
2	0	0	0	1	6492,37	3,78372908	3,78395462	0,051354534070317926	4	0,0112902569	0,00019432322
2	0	0	0	1	6499,14	3,71602273	3,71605849	-0,042117387444401773	4	0,0113053322	0,00015651068
2	0	0	1	1	6505,83	3,64911652	3,6491847	-0,1171756952535361	4	0,0107625974	0,000427595747
2	0	0	0	1	6512,48	3,58261037	3,58278227	-0,1807595522841441	4	0,00976401102	0,000647622102
2	0	0	1	1	6519,13	3,51610398	3,51626945	-0,23545559976870845	4	0,00837182254	0,000827925338
2	0	0	0	1	6525,78	3,44959784	3,44969654	-0,28229314259563933	4	0,00664178701	0,000973825692
2	0	0	1	1	6532,43	3,38309169	3,38322401	-0,3219412257118768	4	0,00462496839	0,00108919933
2	0	0	0	1	6539,08	3,31658554	3,31661105	-0,35456155845895501	4	0,0023692199	0,00117594283
2	0	0	1	1	6545,73	3,25007915	3,25019836	-0,38124468262928256	4	-8,30192948E-005	0,00123912084
2	0	0	0	1	6552,38	3,18357301	3,18377566	-0,40289788112800198	4	-0,0026956799	0,00128273643
2	0	0	0	1	6559,04	3,1170671	3,11729312	-0,42135406316568333	4	-0,00544168893	0,00131348416
2	0	0	0	1	6560,34	3,10396647	3,10432196	-0,42600735276937485	4	-0,00599294901	0,00132246397

File: LiCoO2 vs Li_02_CV_C01_loop8.txt
EC-Lab ASCII FILE
Nb header lines : 3
mode	ox/red	error	control changes	counter inc.	time/s	control/V	Ewe/V	<I>/mA	cycle number	(Q-Qo)/C	P/W
2	0	0	1	0	9120,94	3,10506654	3,10552502	-0,86595839262008666	9	0	0,0026892554
2	0	0	0	0	9126,67	3,04776073	3,04782319	-0,71016405693565683	9	-0,00417655706	0,00216445443
2	0	0	1	0	9132,42	2,99025536	2,9903326	-0,68713307147845632	9	-0,00819519535	0,00205475651
2	0	0	1	0	9138,17	2,93274999	2,93312263	-0,66824395970131085	9	-0,0120930094	0,00196004147
2	0	0	0	0	9143,92	2,87524462	2,87542129	-0,65300407105435981	9	-0,0158936027	0,00187766179
2	0	0	1	0	9149,68	2,81773901	2,81793046	-0,64192585383231206	9	-0,0196191054	0,00180890237
2	0	0	1	0	9155,43	2,76023388	2,76038957	-0,63267549189428429	9	-0,023286121	0,00174643088
2	0	0	0	0	9161,18	2,70272851	2,70289922	-0,62618978942433933	9	-0,0269083735	0,00169252791
2	0	0	1	0	9166,93	2,64522314	2,64535809	-0,62075317821775578	9	-0,0304968413	0,00164211448
2	0	0	0	0	9172,68	2,58771658	2,58810782	-0,61652975186527654	9	-0,0340575092	0,00159564544
2	0	0	0	0	9178,43	2,53021216	2,53054738	-0,6111026021341495	9	-0,0375907533	0,00154642412
2	0	0	1	0	9184,18	2,47270703	2,47292638	-0,60338344161088384	9	-0,0410875231	0,00149212289
2	0	0	0	0	9189,93	2,41520143	2,41530538	-0,5908623385739817	9	-0,0445278734	0,00142711296
2	0	0	0	0	9195,68	2,35769629	2,35784459	-0,57223812971885126	9	-0,0478786826	0,00134924857
2	0	0	1	0	9201,43	2,30019093	2,30053449	-0,54602180514484646	9	-0,051099021	0,00125614204
2	0	0	0	0	9207,18	2,24268532	2,24299359	-0,51537965176006214	9	-0,0541543774	0,0011559932
2	0	0	0	0	9212,93	2,18518019	2,18546295	-0,48479618427033254	9	-0,0570317172	0,00105950411
2	0	0	1	0	9218,68	2,12767458	2,12809253	-0,45875148537258157	9	-0,0597450845	0,000976265583
2	0	0	0	0	9224,43	2,07016945	2,07046151	-0,43864912524198598	9	-0,0623256825	0,000908206159
2	0	0	0	0	9230,18	2,01266408	2,01279044	-0,42568642025192781	9	-0,0648122132	0,000856817584
2	0	0	1	0	9235,93	1,95515871	1,95568073	-0,41844651289284198	9	-0,0672412962	0,000818347791
2	0	0	0	0	9241,68	1,89765334	1,89808977	-0,41682629768426163	9	-0,0696457401	0,000791173719
2	0	0	0	0	9247,43	1,84014809	1,84031832	-0,41812015759448326	9	-0,0720488727	0,000769474194
2	0	0	1	0	9253,18	1,7826426	1,78286779	-0,42348607722670016	9	-0,0744717643	0,000755019661
2	0	0	0	0	9258,94	1,72513723	1,72573805	-0,43202751968056077	9	-0,0769350007	0,000745566329
2	0	0	0	0	9264,69	1,66763186	1,66767585	-0,44355587707832454	9	-0,0794558972	0,000739707437
2	0	0	1	0	9270,44	1,6101265	1,61055601	-0,45462680188939021	9	-0,0820418	0,000732201908
2	0	0	0	0	9276,19	1,55262125	1,55292523	-0,46886824769899251	9	-0,0846999735	0,000728117302
2	0	0	1	0	9281,94	1,49511576	1,49548459	-0,48714353935793088	9	-0,0874512121	0,000728515675
2	0	0	1	0	9287,69	1,43761039	1,43802392	-0,51230896140138381	9	-0,0903253257	0,000736712536
2	0	0	0	0	9293,44	1,38010514	1,38049316	-0,54592026428630016	9	-0,0933666825	0,000753639208
2	0	0	1	0	9299,19	1,32259977	1,32293236	-0,59494959174965875	9	-0,0966418833	0,000787078054
2	0	0	1	0	9304,94	1,2650944	1,26546168	-0,66647420326868813	9	-0,100260697	0,000843397574
2	0	0	0	0	9310,69	1,20758891	1,20767021	-0,76440239107857318	9	-0,104368418	0,00092314597
2	0	0	1	0	9316,44	1,15008366	1,15032995	-0,88186683723082381	9	-0,109098293	0,00101443788
2	0	0	1	0	9322,23	1,09217823	1,09241819	-1,0147332120686805	9	-0,114587516	0,00110851298
2	0	0	0	0	9327,98	1,03467286	1,0347873	-1,1679671242212315	9	-0,120853558	0,00120859756
2	1	0	1	0	9333,68	1,02227175	1,02266753	-0,98659545307358349	9	-0,127552435	0,00100895914
2	1	0	0	0	9339,43	1,07977712	1,07993782	-0,61853468635429952	9	-0,132063657	0,000667979009
2	1	0	1	0	9345,22	1,13768256	1,13805997	-0,40485940159608979	9	-0,134968132	0,000460754294
2	1	0	1	0	9350,97	1,19518685	1,19553971	-0,2728152635955401	9	-0,136884034	0,000326161477
2	1	0	0	0	9356,72	1,2526933	1,25302124	-0,18490934818207005	9	-0,138179883	0,000231695347
2	1	0	1	0	9362,48	1,31019855	1,31065238	-0,12125452340114906	9	-0,139047161	0,000158922528
2	1	0	0	0	9368,23	1,36770391	1,36793256	-0,074022056651301901	9	-0,139598921	0,000101257181
2	1	0	0	0	9374,02	1,42560935	1,42582417	-0,035743337027573344	9	-0,13990894	5,09637139E-005
2	1	0	1	0	9379,81	1,48351479	1,48383605	-0,0041991203615907443	9	-0,140019566	6,23080632E-006
2	1	0	0	0	9385,60	1,54142022	1,54172778	0,023092072583191654	9	-0,139960885	3,56016899E-005
2	1	0	0	0	9391,35	1,59892547	1,59906816	0,047818294202443213	9	-0,139752567	7,6464712E-005
2	1	0	1	0	9397,10	1,65643096	1,65676939	0,072540113217352435	9	-0,139402449	0,000120182238
2	1	0	0	0	9402,85	1,71393621	1,71427	0,096917107817716787	9	-0,138911337	0,000166142083
2	1	0	0	0	9408,64	1,77184165	1,7721014	0,12249484126611267	9	-0,138272226	0,000217073277
2	1	0	1	0	9414,39	1,82934701	1,82932162	0,14790662052109837	9	-0,137490436	0,000270568766
2	1	0	0	0	9420,14	1,88685238	1,88715303	0,17362029928093149	9	-0,136560857	0,000327648071
2	1	0	0	0	9425,89	1,94435787	1,9444232	0,19720981332162957	9	-0,135489076	0,000383459323
2	1	0	1	0	9431,64	2,001863	2,00231481	0,21853152918629302	9	-0,134288341	0,000437568902
2	1	0	0	0	9437,39	2,05936837	2,05958486	0,23578335957912077	9	-0,132976577	0,000485615834
2	1	0	1	0	9443,14	2,11687422	2,11738586	0,25049945356042502	9	-0,131573126	0,000530403981
2	1	0	1	0	9448,89	2,17437935	2,17443609	0,26210396923124746	9	-0,130094096	0,000569928321
2	1	0	0	0	9454,64	2,23188448	2,23230743	0,27182685250105808	9	-0,128554821	0,000606801128
2	1	0	1	0	9460,39	2,28938985	2,28966808	0,27903725773406496	9	-0,126966685	0,000638902711
2	1	0	1	0	9466,15	2,34689522	2,3467977	0,28525467605019549	9	-0,125340104	0,000669435016
2	1	0	0	0	9471,90	2,40440059	2,40486002	0,29022554284892979	9	-0,123681769	0,000697951822
2	1	0	1	0	9477,65	2,46190619	2,46212983	0,29506609705276877	9	-0,121995077	0,000726491038
2	1	0	1	0	9483,40	2,51941133	2,51957059	0,29938549889872499	9	-0,120282836	0,000754322915
2	1	0	0	0	9489,15	2,57691669	2,57719159	0,30411529222813626	9	-0,118544713	0,00078376336
2	1	0	1	0	9494,90	2,63442206	2,63461208	0,31005013260679904	9	-0,116776668	0,000816861808
2	1	0	1	0	9500,65	2,69192743	2,69192243	0,31868446610557523	9	-0,114967622	0,000857873878
2	1	0	0	0	9506,40	2,7494328	2,7495532	0,33093626129751373	9	-0,113098256	0,000909926835
2	1	0	1	0	9512,15	2,80693817	2,80714417	0,34767680242657747	9	-0,111147903	0,00097597891
2	1	0	1	0	9517,90	2,86444306	2,86461353	0,37683991135705376	9	-0,109069601	0,00107950065
2	1	0	0	0	9523,65	2,92194891	2,92208552	0,40338480379432384	9	-0,106816784	0,00117872492
2	1	0	1	0	9529,40	2,97945428	2,97931552	0,42867546357835187	9	-0,104425102	0,00127715943
2	1	0	1	0	9535,15	3,03695941	3,03708625	0,45987446480356198	9	-0,101870894	0,00139667839
2	1	0	0	0	9540,90	3,09446502	3,09476805	0,49762653295571456	9	-0,0991191342	0,00154003873
2	1	0	1	0	9546,65	3,15197015	3,15224862	0,54205876697475885	9	-0,096130982	0,00170870405
2	1	0	0	0	9552,40	3,20947576	3,20969915	0,59296083915978714	9	-0,0928679332	0,0019032259
2	1	0	0	0	9558,15	3,26698112	3,26717997	0,64596263847003494	9	-0,0893038586	0,00211047614
2	1	0	1	0	9563,90	3,32448649	3,32459044	0,69631427914524838	9	-0,0854393467	0,00231495989
2	1	0	0	0	9569,65	3,38199162	3,38210106	0,73964403631786714	9	-0,0813039914	0,00250155083
2	1	0	0	0	9575,41	3,43949699	3,43980217	0,77729783486574707	9	-0,0769369602	0,00267375074
2	1	0	1	0	9581,16	3,4970026	3,49706244	0,81476018391549235	9	-0,0723569095	0,00284926733
2	1	0	0	0	9586,91	3,55450797	3,55464315	0,85987506341189146	9	-0,0675427392	0,003056549
2	1	0	0	0	9592,66	3,61201262	3,61230445	0,91740410700764314	9	-0,0624358691	0,00331394305
2	1	0	1	0	9598,41	3,66951847	3,66951442	0,9879573943714295	9	-0,0569600053	0,003625324
2	1	0	0	0	9604,19	3,72732377	3,72747612	1,0747851055736355	9	-0,0509987026	0,00400623586
2	1	0	1	0	9609,94	3,78482938	3,78503704	1,1760410433635115	9	-0,0445310548	0,00445135869
2	1	0	1	0	9615,69	3,84233475	3,84253764	1,2925840519989507	9	-0,0374360755	0,0049668029
2	1	0	0	0	9621,44	3,89984012	3,90010834	1,4254254369686059	9	-0,0296243131	0,00555931358
2	1	0	1	0	9627,19	3,95734525	3,95763946	1,5794397213806733	9	-0,0209936667	0,00625085318
2	1	0	1	0	9632,94	4,01485109	4,01482964	1,7739144905159846	9	-0,0113720223	0,00712196436
2	1	0	0	0	9638,69	4,07235622	4,07242012	2,0253295556952509	9	-0,000473838823	0,00824799296
2	1	0	1	0	9644,44	4,12986135	4,13005114	2,3497941171129533	9	0,0120706623	0,00970476959
2	1	0	1	0	9650,19	4,18736601	4,18783236	2,7674803601486096	9	0,0267391689	0,0115897441
2	0	0	0	1	9655,88	4,15566397	4,15570402	2,128379162400961	9	0,0412120149	0,00884491391
2	0	0	1	1	9661,63	4,09815836	4,09817314	1,4295227366189174	9	0,0513438433	0,00585843157
2	0	0	0	1	9667,38	4,0406518	4,04066181	0,89497078680352794	9	0,0579543188	0,00361627433
2	0	0	0	1	9673,16	3,98284793	3,98302174	0,48405940116693638	9	0,0618839189	0,0019280191
2	0	0	1	1	9678,92	3,92534232	3,92574143	0,17481451116812739	9	0,0637324229	0,000686276588
2	0	0	0	1	9684,71	3,86743689	3,86754894	-0,062040471918104909	9	0,064023748	0,000239944566
2	0	0	0	1	9690,50	3,80953169	3,8097477	-0,24635314716336643	9	0,0631064326	0,000938543351
2	0	0	1	1	9696,25	3,75202632	3,75247741	-0,39579915208742022	9	0,0612424202	0,00148522737
2	0	0	0	1	9702,00	3,69452071	3,69458556	-0,52333243377506733	9	0,0585863329	0,00193349645
2	0	0	0	1	9707,75	3,63701534	3,63690472	-0,63534283063685005	9	0,0552433431	0,00231068139
2	0	0	1	1	9713,50	3,57951021	3,57969475	-0,73137063005318464	9	0,051301267	0,0026180835
2	0	0	0	1	9719,25	3,52200484	3,52229428	-0,80823281283179686	9	0,0468600355	0,00284683378
2	0	0	0	1	9725,00	3,46449947	3,46469307	-0,86121372816463552	9	0,0420442447	0,00298384135
2	0	0	1	1	9730,75	3,40699387	3,40718246	-0,88949743130554995	9	0,0369944796	0,00303068012
2	0	0	0	1	9736,50	3,3494885	3,34953141	-0,89404246583580621	9	0,031852711	0,00299462327
2	0	0	0	1	9742,25	3,29198265	3,29217935	-0,87994958316800973	9	0,0267411768	0,00289695174
2	0	0	1	1	9748,00	3,234478	3,23472047	-0,85315450529257574	9	0,0217506364	0,00275971624
2	0	0	0	1	9753,75	3,17697263	3,17708945	-0,82018764627476416	9	0,0169352889	0,0026058096
2	0	0	1	1	9759,50	3,11946607	3,11972833	-0,78526170872697242	9	0,0123171769	0,00244980329
2	0	0	1	1	9760,88	3,10566664	3,10576558	-0,77810999751091008	9	0,0112438621	0,00241662725