Folder: thesis/Experimentelles/Rohdaten/Batteriemessungen/AlteZelle/Studenten_Batterietests/Sonstige/ZView-Export (part 6)

File: LiCoO2 vs Li_05_GCPL_C01_loop3.txt
EC-Lab ASCII FILE
Nb header lines : 3
mode	ox/red	error	control changes	Ns changes	counter inc.	Ns	time/s	control/V/mA	Ewe/V	dq/mA.h	<I>/mA	P/W	(Q-Qo)/mA.h	x	Capacity/mA.h
1	0	0	1	1	0	1	141462,59	-0,100000001	4,19570208	0	0	0	0	0	0
1	0	0	1	0	0	1	141952,59	-0,100000001	3,87401009	-0,0002777166657191184	-0,099977984016108032	0,000387315726	-0,013606748042569298	0,0005076860639355744	0,013606748042569298
1	0	0	1	0	0	1	142442,59	-0,100000001	3,82117438	-0,00027771750290360717	-0,099978285402476838	0,000382034457	-0,027214851996515264	0,0010154227187476547	0,027214851996515264
1	0	0	1	0	0	1	142932,59	-0,100000001	3,78134251	-0,00027771649284164109	-0,099977921780225946	0,000378050754	-0,040822966844565235	0,0015231597800334026	0,040822966844565235
1	0	0	1	0	0	1	143422,59	-0,100000001	3,74693346	-0,00027771577348684272	-0,099977662812539046	0,000374609663	-0,05443105232260985	0,0020308957454847626	0,05443105232260985
1	0	0	1	0	0	1	143912,59	-0,100000001	3,71515965	-0,00027771625185509523	-0,099977835025083008	0,00037143362	-0,068039147154072819	0,0025386320599247366	0,068039147154072819
1	0	0	1	0	0	1	144402,59	-0,100000001	3,68472219	-0,00027771690163264675	-0,099978068944964954	0,000368391396	-0,081647255940322099	0,003046368895036551	0,081647255940322099
1	0	0	1	0	0	1	144892,59	-0,100000001	3,65443778	-0,00027771679209089946	-0,099978029509942093	0,000365363492	-0,095255354978622131	0,0035541053664392717	0,095255354978622131
1	0	0	1	0	0	1	145382,59	-0,100000001	3,62377143	-0,00027771703533704083	-0,09997811707853929	0,00036229784	-0,10886347890331787	0,0040618427663868768	0,10886347890331787
1	0	0	1	0	0	1	145872,59	-0,100000001	3,59161544	-0,00027771564338935747	-0,099977615977451686	0,000359081139	-0,12247159307351317	0,0045695798023809555	0,12247159307351317
1	0	0	1	0	0	1	146362,59	-0,100000001	3,55758834	-0,00027771664186525677	-0,099977975428719194	0,000355680473	-0,1360797076394544	0,0050773168531408474	0,1360797076394544
1	0	0	1	0	0	1	146852,59	-0,100000001	3,52138448	-0,00027771630878787901	-0,099977855520881971	0,000352060481	-0,14968781709146896	0,0055850537130932582	0,14968781709146896
1	0	0	1	0	0	1	147342,59	-0,100000001	3,48193431	-0,00027771565530490544	-0,099977620267048294	0,000348115514	-0,16329589240704038	0,0060927892993690816	0,16329589240704038
1	0	0	1	0	0	1	147832,59	-0,100000001	3,43984914	-0,00027771651712846426	-0,099977930523480922	0,000343908992	-0,17690397863412458	0,0066005252927681139	0,17690397863412458
1	0	0	1	0	0	1	148322,59	-0,100000001	3,39400244	-0,00027771628883977731	-0,099977848339566464	0,000339325052	-0,1905120942450048	0,0071082623825160832	0,1905120942450048
1	0	0	1	0	0	1	148812,59	-0,100000001	3,34404993	-0,00027771697647910982	-0,099978095889687437	0,000334331737	-0,20412020834973555	0,0076159994160675917	0,20412020834973555
1	0	0	1	0	0	1	149302,59	-0,100000001	3,29022145	-0,00027771690676775242	-0,099978070793602701	0,000328950002	-0,21772833113619869	0,0081237367735462093	0,21772833113619869
1	0	0	1	0	0	1	149792,59	-0,100000001	3,23131371	-0,00027771673834572237	-0,09997801016168137	0,000323060318	-0,23133648491949075	0,0086314752875581888	0,23133648491949075
1	0	0	1	0	0	1	150282,59	-0,100000001	3,1663146	-0,00027771661895844669	-0,099977967182268851	0,000316561694	-0,24494461075277078	0,0091392127587176397	0,24494461075277078
1	0	0	1	0	0	1	150772,59	-0,100000001	3,09480429	-0,00027771788952789376	-0,099978424587198234	0,000309413648	-0,25855274927717565	0,0096469507034000218	0,25855274927717565
1	0	0	1	0	0	1	151262,59	-0,100000001	3,01366997	-0,00027771525916746922	-0,099977477657593562	0,000301299122	-0,27216086916580438	0,010154687952756541	0,27216086916580438
1	0	0	1	0	0	1	151752,59	-0,100000001	2,92000937	-0,00027771728802596531	-0,099978208046537869	0,000291937293	-0,28576897299440525	0,010662424602891827	0,28576897299440525
1	0	0	1	0	0	1	152242,59	-0,100000001	2,81219959	-0,00027771721687581805	-0,099978182432488883	0,000281158602	-0,29937710620378509	0,01117016234926348	0,29937710620378509
1	0	0	1	0	0	1	152732,59	-0,100000001	2,6908133	-0,00027771698388747043	-0,099978098556696845	0,000269022392	-0,31298521845148813	0,011677899313526787	0,31298521845148813
1	0	0	1	0	0	1	153222,59	-0,100000001	2,56140709	-0,00027771771563258435	-0,09997836198489664	0,000256085274	-0,32659335504641562	0,012185637186217774	0,32659335504641562
1	0	0	1	0	0	1	153712,59	-0,100000001	2,42713165	-0,00027771712493896486	-0,099978149335226906	0,000242660128	-0,34020148927078675	0,012693374970460117	0,34020148927078675
1	0	0	1	0	0	1	154202,59	-0,100000001	2,27104998	-0,00027771728657310208	-0,0999782075235072	0,000227055512	-0,35380963381273491	0,01320111313966513	0,35380963381273491
1	0	0	1	0	0	1	154692,59	-0,100000001	2,01496816	-0,00027771818208073578	-0,09997852990620489	0,000201453557	-0,36741780704224006	0,013708852379241464	0,36741780704224006
1	0	0	1	0	0	1	155182,59	-0,100000001	1,70669889	-0,00027771617703305347	-0,099977808089152192	0,000170632018	-0,38102592449669728	0,01421658953777577	0,38102592449669728
1	0	0	1	0	0	1	155672,59	-0,100000001	1,50245976	-0,00027771685751858685	-0,099978053063905882	0,000150213004	-0,39463404061139277	0,01472432664632177	0,39463404061139277
1	1	0	0	0	0	2	156152,08	0,100000001	2,90137172	0,00027782423385315469	0,10001670853830219	0,00029018565	-0,38183991421763418	0,014246960588684746	0,013057718408273741
1	1	0	0	0	0	2	156642,08	0,100000001	3,15428376	0,00027782295693291562	0,10001624884708803	0,000315479643	-0,36822655068093171	0,013739027691768438	0,026671081944976416
1	1	0	0	0	0	2	157132,08	0,100000001	3,3632586	0,00027782319066466554	0,10001633299050485	0,000336380792	-0,3546132204420752	0,013231096037239531	0,040284412183832787
1	1	0	0	0	0	2	157622,08	0,100000001	3,49892783	0,00027782308859874803	0,1000162962467803	0,000349949813	-0,34099988695251021	0,012723164261422318	0,053897745673397747
1	1	0	0	0	0	2	158112,08	0,100000001	3,58153248	0,00027782469583509699	0,10001687485177538	0,0003582137	-0,32738652919262765	0,012215231580046925	0,067511103433280346
1	1	0	0	0	0	2	158602,08	0,100000001	3,63759518	0,00027782403946378166	0,10001663855813883	0,000363820029	-0,31377314187980742	0,011707297796011696	0,081124490746100326
1	1	0	0	0	0	2	159092,08	0,100000001	3,68055868	0,00027782463310741715	0,10001685226981418	0,000368117908	-0,30015973628527149	0,011199363329861072	0,094737896340636326
1	1	0	0	0	0	2	159582,08	0,100000001	3,71508217	0,00027782385778592694	0,10001657315412138	0,000371569797	-0,28654635464222211	0,010691429757372614	0,10835127798368573
1	1	0	0	0	0	2	160072,08	0,100000001	3,74485111	0,00027782537915350659	0,10001712084636437	0,000374549214	-0,27293293887714522	0,010183494911745434	0,12196469374876262
1	1	0	0	0	0	2	160562,08	0,100000001	3,77154589	0,00027782329098673331	0,10001636910644358	0,000377216318	-0,25931954760040067	0,009675560979810857	0,1355780850255072
1	1	0	0	0	0	2	161052,08	0,100000001	3,79615927	0,00027782330129709504	0,10001637281817325	0,000379678095	-0,24570620138436682	0,0091676287291519821	0,14919143124154099
1	1	0	0	0	0	2	161542,08	0,100000001	3,81976056	0,00027782404564941923	0,10001664078496802	0,000382039609	-0,2320928411250752	0,0086596959545202778	0,16280479150083261
1	1	0	0	0	0	2	162032,08	0,100000001	3,84284616	0,00027782411007376182	0,10001666397772771	0,000384348648	-0,21847945092582867	0,0081517620627886029	0,1764181817000791
1	1	0	0	0	0	2	162522,08	0,100000001	3,86604643	0,00027782397858881293	0,1000166166431535	0,000386668893	-0,20486607084126237	0,0076438285484492442	0,19003156178464541
1	1	0	0	0	0	2	163012,08	0,100000001	3,88949513	0,00027782430635227101	0,10001673463797997	0,000389014604	-0,19125268224099661	0,0071358947163776896	0,20364495038491117
1	1	0	0	0	0	2	163502,08	0,100000001	3,91263819	0,00027782383668257133	0,10001656555691454	0,00039132862	-0,17763932190203018	0,0066279619387732109	0,21725831072387757
1	1	0	0	0	0	2	163992,08	0,100000001	3,93572378	0,00027782456085003085	0,10001682625715917	0,000393638591	-0,16402593662692122	0,0061200282307677274	0,23087169599898656
1	1	0	0	0	0	2	164482,08	0,100000001	3,95842767	0,00027782522032741043	0,1000170636689787	0,00039591032	-0,15041251333169446	0,0056120931041805306	0,24448511929421328
1	1	0	0	0	0	2	164972,08	0,100000001	3,98120785	0,00027782476962978643	0,10001690141785942	0,000398188073	-0,13679909880206581	0,0051041583046495846	0,25809853382384208
1	1	0	0	0	0	2	165462,08	0,100000001	4,00396919	0,00027782443241816429	0,10001678002169445	0,000400464109	-0,1231856679361016	0,0045962228955879942	0,27171196468980618
1	1	0	0	0	0	2	165952,08	0,100000001	4,02638674	0,00027782436376230586	0,10001675530558928	0,000402706151	-0,10957225951748266	0,0040882883240670362	0,28532537310842515
1	1	0	0	0	0	2	166442,08	0,100000001	4,04865122	0,0002778241676303248	0,10001668469808714	0,000404932682	-0,095958852029539712	0,0035803537872708512	0,29893878059636813
1	1	0	0	0	0	2	166932,08	0,100000001	4,07087755	0,00027782488402186166	0,10001694259900006	0,000407156738	-0,082345428273523866	0,0030724186434909946	0,31255220435238387
1	1	0	0	0	0	2	167422,08	0,100000001	4,09276056	0,0002778253274965617	0,1000171022498671	0,000409346045	-0,068732009172360064	0,0025644836733899251	0,32616562345354765
1	1	0	0	0	0	2	167912,08	0,100000001	4,11443329	0,00027782510501311891	0,10001702215584022	0,000411513378	-0,055118600078956922	0,0020565490766918614	0,33977903254695066
1	1	0	0	0	0	2	168402,08	0,100000001	4,1363349	0,00027782449650723075	0,10001680309375475	0,000413703005	-0,041505204428425677	0,0015486149815654227	0,35339242819748198
1	1	0	0	0	0	2	168892,08	0,100000001	4,15806484	0,00027782432617412675	0,10001674177384693	0,0004158761	-0,027891820564295683	0,0010406813262054619	0,36700581206161197
1	1	0	0	0	0	2	169382,08	0,100000001	4,17989063	0,0002778243626124329	0,10001675489163509	0,000418059091	-0,014278412963375454	0,00053274678519394278	0,38061921966253229
1	1	0	0	0	0	2	169841,35	0,100000001	4,19996023	0,0002575369506544537	0,10001649195771531	0,000420065277	-0,001518799676431968	5,6668457975559885E-005	0,39337883294947565

File: LiCoO2 vs Li_05_GCPL_C01_loop8.txt
EC-Lab ASCII FILE
Nb header lines : 3
mode	ox/red	error	control changes	Ns changes	counter inc.	Ns	time/s	control/V/mA	Ewe/V	dq/mA.h	<I>/mA	P/W	(Q-Qo)/mA.h	x	Capacity/mA.h
1	0	0	1	1	0	1	267455,04	-0,100000001	4,1961031	0	0	0	0	0	0
1	0	0	1	0	0	1	267835,05	-0,100000001	3,81806207	-0,00027772114428877827	-0,09997768688280064	0,000381721009	-0,010552027761005182	0,00039371034311531757	0,010552027761005182
1	0	0	1	0	0	1	268215,05	-0,100000001	3,77315068	-0,00027772115025462371	-0,099977689030463642	0,000377230899	-0,021105410154191056	0,00078747122937861914	0,021105410154191056
1	0	0	1	0	0	1	268595,06	-0,100000001	3,73753881	-0,00027772138581797478	-0,099977773829309427	0,000373670802	-0,031658816850085126	0,0011812330224086387	0,031658816850085126
1	0	0	1	0	0	1	268975,07	-0,100000001	3,7054975	-0,00027772098967764112	-0,099977631219207488	0,000370466849	-0,042212235454841536	0,0015749952597743238	0,042212235454841536
1	0	0	1	0	0	1	269355,07	-0,100000001	3,67517471	-0,00027772086887516909	-0,099977587735810394	0,000367435103	-0,052765635466739437	0,0019687568034154598	0,052765635466739437
1	0	0	1	0	0	1	269735,08	-0,100000001	3,64510036	-0,00027772116698448854	-0,099977695053099021	0,000364428735	-0,063319029283592998	0,0023625181159111619	0,063319029283592998
1	0	0	1	0	0	1	270115,09	-0,100000001	3,61479664	-0,00027771988260621827	-0,099977232681169088	0,000361397368	-0,07387241196704855	0,0027562790130048154	0,07387241196704855
1	0	0	1	0	0	1	270495,10	-0,100000001	3,58336639	-0,00027772016464877462	-0,099977334219189824	0,000358255405	-0,084425781128326976	0,0031500394055678598	0,084425781128326976
1	0	0	1	0	0	1	270875,10	-0,100000001	3,5507524	-0,00027772077807659904	-0,09997755504895456	0,000354995544	-0,094979151820288282	0,0035437998552427398	0,094979151820288282
1	0	0	1	0	0	1	271255,11	-0,100000001	3,51645803	-0,00027772145280448925	-0,099977797946318054	0,000351567724	-0,1055325493063835	0,0039375613046427821	0,1055325493063835
1	0	0	1	0	0	1	271635,12	-0,100000001	3,47985291	-0,00027771996686069501	-0,099977263012196698	0,000347906171	-0,11608592984105475	0,0043313221215624038	0,11608592984105475
1	0	0	1	0	0	1	272015,13	-0,100000001	3,44034576	-0,00027772133330711056	-0,099977754925180365	0,000343958032	-0,12663931775943438	0,0047250832139781126	0,12663931775943438
1	0	0	1	0	0	1	272395,13	-0,100000001	3,39696193	-0,00027771976320073011	-0,09997718970067648	0,000339618709	-0,13719269417969834	0,0051188438773836672	0,13719269417969834
1	0	0	1	0	0	1	272775,14	-0,100000001	3,34924388	-0,00027772024381947184	-0,099977362720092045	0,000334848562	-0,14774607335841776	0,005512604643710903	0,14774607335841776
1	0	0	1	0	0	1	273155,15	-0,100000001	3,2967329	-0,00027772129495773046	-0,099977741122579034	0,000329599919	-0,1582994519218417	0,0059063653870806374	0,1582994519218417
1	0	0	1	0	0	1	273535,16	-0,100000001	3,23891354	-0,00027772127919933859	-0,099977735446175578	0,000323819229	-0,16885285446543702	0,0063001270251828083	0,16885285446543702
1	0	0	1	0	0	1	273915,16	-0,100000001	3,17404819	-0,00027772053635492918	-0,099977468026173453	0,000317333295	-0,17940624544355357	0,006693888231761417	0,17940624544355357
1	0	0	1	0	0	1	274295,17	-0,100000001	3,10095286	-0,0002777204474318359	-0,099977436019131738	0,000310025323	-0,1899596173644865	0,00708764872729088	0,1899596173644865
1	0	0	1	0	0	1	274675,18	-0,100000001	3,01863456	-0,00027772025497009357	-0,099977366734238566	0,000301795139	-0,20051298195174704	0,007481408949191168	0,20051298195174704
1	0	0	1	0	0	1	275055,18	-0,100000001	2,92484045	-0,00027772085097100998	-0,099977581288109478	0,000292418466	-0,21106636066378698	0,0078751696981059648	0,21106636066378698
1	0	0	1	0	0	1	275435,19	-0,100000001	2,81936026	-0,00027772033179385792	-0,099977394385605747	0,000281872286	-0,221619753390984	0,0082689309699451162	0,221619753390984
1	0	0	1	0	0	1	275815,20	-0,100000001	2,70635653	-0,00027772031276134982	-0,099977387538690227	0,000270574441	-0,23217314082745667	0,0086626920443802278	0,23217314082745667
1	0	0	1	0	0	1	276195,21	-0,100000001	2,58989668	-0,00027771988961141968	-0,099977235207648512	0,000258930697	-0,24272651131365235	0,0090564524863777178	0,24272651131365235
1	0	0	1	0	0	1	276575,21	-0,100000001	2,47288322	-0,00027772036861835254	-0,099977407642168563	0,000247232441	-0,25327987901488285	0,0094502128244644109	0,25327987901488285
1	0	0	1	0	0	1	276955,22	-0,100000001	2,35441828	-0,0002777197128960656	-0,099977171589018227	0,000235388085	-0,26383323917628022	0,009843972881229792	0,26383323917628022
1	0	0	1	0	0	1	277335,23	-0,100000001	2,2149682	-0,00027772000510328342	-0,099977276783918886	0,000221446491	-0,27438661541259968	0,01023773353777213	0,27438661541259968
1	0	0	1	0	0	1	277715,24	-0,100000001	1,99467015	-0,00027772066375654605	-0,099977513894527898	0,000199422167	-0,28494000222458086	0,010631494588906626	0,28494000222458086
1	0	0	1	0	0	1	278095,24	-0,100000001	1,72493458	-0,00027772037820559408	-0,099977411093509069	0,0001724545	-0,29549337889458643	0,011025255261630374	0,29549337889458643
1	0	0	1	0	0	1	278475,25	-0,100000001	1,52243304	-0,00027772036549076442	-0,099977406517422387	0,000152208901	-0,3060467746724121	0,011419016647292581	0,3060467746724121
1	1	0	0	0	0	2	278841,58	0,100000001	2,83862591	0,0002778308715240823	0,10001718792692112	0,000283911388	-0,29955372966229862	0,011176752407973384	0,0083349199330736384
1	1	0	0	0	0	2	279221,59	0,100000001	3,04664588	0,00027782993577462102	0,10001685105894403	0,000304715941	-0,28899615808543514	0,010782835217634653	0,018892491509937165
1	1	0	0	0	0	2	279601,59	0,100000001	3,2016201	0,00027783020978752109	0,10001694970285301	0,000320216262	-0,27843860143067594	0,010388918584059696	0,029450048164696326
1	1	0	0	0	0	2	279981,60	0,100000001	3,36644745	0,00027782989223342797	0,10001683538441635	0,000336701429	-0,26788107193407946	0,0099950029637923059	0,040007577661292826
1	1	0	0	0	0	2	280361,61	0,100000001	3,48111224	0,00027782980833989053	0,10001680518798166	0,000348169735	-0,25732353758292509	0,0096010871623948326	0,050565112012447162
1	1	0	0	0	0	2	280741,62	0,100000001	3,5536921	0,00027783119977638125	0,10001730609547341	0,000355430704	-0,24676597278570499	0,0092071702250137126	0,06112267680966729
1	1	0	0	0	0	2	281121,62	0,100000001	3,60414076	0,00027783086913989651	0,10001718706513776	0,000360476028	-0,23620840528396419	0,0088132531867232896	0,071680244311407962
1	1	0	0	0	0	2	281501,63	0,100000001	3,64248347	0,00027783066182873312	0,10001711243339162	0,00036431069	-0,22565084324661674	0,008419336352316727	0,082237806348755456
1	1	0	0	0	0	2	281881,64	0,100000001	3,67383718	0,00027783116141209997	0,10001729228459808	0,000367447239	-0,21509326415517709	0,0080254188815990566	0,092795385440195085
1	1	0	0	0	0	2	282261,65	0,100000001	3,70089459	0,00027783053934781088	0,10001706834576592	0,000370152615	-0,20453568629403357	0,0076315014567853888	0,10335296330133858
1	1	0	0	0	0	2	282641,65	0,100000001	3,72497344	0,00027783056152818934	0,10001707632821976	0,000372560957	-0,1939780959386601	0,0072375835657952026	0,11391055365671208
1	1	0	0	0	0	2	283021,66	0,100000001	3,74721885	0,00027783009826433331	0,10001690955644277	0,000374785246	-0,18342051251953757	0,006843665933605865	0,12446813707583475
1	1	0	0	0	0	2	283401,67	0,100000001	3,76841426	0,00027783115194406778	0,10001728887617211	0,000376906566	-0,17286293531934656	0,0064497485334532237	0,13502571427602574
1	1	0	0	0	0	2	283781,67	0,100000001	3,78871226	0,00027783185728473795	0,10001754279392421	0,000378937693	-0,1623053398477463	0,0060558304515697382	0,14558330974762598
1	1	0	0	0	0	2	284161,68	0,100000001	3,80889535	0,00027783142821656333	0,10001738832769816	0,000380955753	-0,15174774719206982	0,005661912474752153	0,15614090240330246
1	1	0	0	0	0	2	284541,69	0,100000001	3,82915521	0,00027783094941410752	0,1000172159632973	0,000382981438	-0,14119016514254973	0,0052679948936645242	0,16669848445282256
1	1	0	0	0	0	2	284921,70	0,100000001	3,84979677	0,00027783118735584944	0,10001730162416806	0,000385046296	-0,13063256685896746	0,004874076706862208	0,17725608273640483
1	1	0	0	0	0	2	285301,70	0,100000001	3,8709538	0,0002778315843563113	0,10001744454158245	0,000387162901	-0,12007497668950912	0,0044801588228087661	0,18781367290586323
1	1	0	0	0	0	2	285681,71	0,100000001	3,89304662	0,00027783227510833075	0,10001769320752142	0,000389373541	-0,10951737794979398	0,0040862406189875187	0,19837127164557827
1	1	0	0	0	0	2	286061,72	0,100000001	3,91601801	0,00027783148978816141	0,10001741049537533	0,000391669979	-0,09895977648588919	0,0036923223135230938	0,20892887310948304
1	1	0	0	0	0	2	286441,73	0,100000001	3,93996286	0,00027783148537410634	0,10001740890401744	0,000394064875	-0,088402192861843725	0,0032984046736878061	0,21948645673352848
1	1	0	0	0	0	2	286821,73	0,100000001	3,96555018	0,00027783131459024218	0,10001734742766749	0,0003966238	-0,077844603510444634	0,0029044868201572544	0,23004404608492762
1	1	0	0	0	0	2	287201,74	0,100000001	3,99283671	0,00027783154480076496	0,10001743030185997	0,000399353274	-0,067287010546176269	0,0025105688318256915	0,240601639049196
1	1	0	0	0	0	2	287581,75	0,100000001	4,02172756	0,00027783042363656893	0,10001702668819222	0,000402241247	-0,056729427370927706	0,0021166512087356198	0,25115922222444464
1	1	0	0	0	0	2	287961,75	0,100000001	4,05266094	0,00027783095426981645	0,10001721771481184	0,000405335886	-0,046171859458009286	0,0017227341551036058	0,26171679013736288
1	1	0	0	0	0	2	288341,76	0,100000001	4,08523703	0,00027783099565158285	0,10001723261196091	0,000408594089	-0,035614277529426643	0,0013288165785283157	0,27227437206594557
1	1	0	0	0	0	2	288721,77	0,100000001	4,11867237	0,00027783085062975686	0,10001718040510877	0,000411938003	-0,025056682002114634	0,00093489849456614886	0,28283196759325741
1	1	0	0	0	0	2	289101,78	0,100000001	4,15193558	0,00027783125245943667	0,10001732505635086	0,000415265502	-0,014499084689613309	0,00054098034399616864	0,29338956490575846
1	1	0	0	0	0	2	289481,78	0,100000001	4,18355656	0,0002778317087954945	0,10001748933649718	0,000418428826	-0,003941492422332665	0,00014706238167015523	0,30394715717303891
1	1	0	0	0	0	2	289704,61	0,100000001	4,19984579	7,8458139323939891E-005	0,10001753290300645	0,000420058204	0,0022492595656925098	-8,3922898557637069E-005	0,31013790916106406

File: LiCoO2 vs Li_07_OCV_C01_loop0.txt
EC-Lab ASCII FILE
Nb header lines : 3
mode	error	time/s	Ewe/V
3	0	332818,57	4,1961031
3	0	332878,57	4,06039572
3	0	332938,57	4,03721428
3	0	332998,57	4,02778149
3	0	333058,57	4,02232027
3	0	333118,58	4,01815748
3	0	333178,58	4,01510239
3	0	333238,58	4,01261997
3	0	333298,58	4,01050043
3	0	333358,58	4,00849581
3	0	333418,58	4,00681543
3	0	333478,58	4,00526857
3	0	333538,58	4,00395107
3	0	333598,58	4,00259542
3	0	333658,58	4,00131607
3	0	333718,58	4,00013208
3	0	333778,58	3,99890995
3	0	333838,58	3,99806976
3	0	333898,58	3,99690485
3	0	333958,58	3,99591208
3	0	334018,58	3,99512911
3	0	334078,58	3,99428892
3	0	334138,58	3,99350595
3	0	334198,58	3,99264669
3	0	334258,58	3,99192119
3	0	334318,58	3,99106193
3	0	334378,58	3,99037457
3	0	334438,58	3,98966789
3	0	334498,58	3,98913336
3	0	334558,58	3,98835039
3	0	334618,58	3,9877584
3	0	334678,58	3,98707104
3	0	334738,58	3,98653626
3	0	334798,58	3,98592544
3	0	334858,58	3,98539066
3	0	334918,58	3,9847796
3	0	334978,58	3,98420668
3	0	335038,58	3,98369122
3	0	335098,58	3,9832902
3	0	335158,58	3,98260283
3	0	335218,58	3,98220181
3	0	335278,58	3,98162889
3	0	335338,58	3,98109436
3	0	335398,58	3,98071241
3	0	335458,58	3,98019695
3	0	335518,58	3,9797194
3	0	335578,58	3,97929931
3	0	335638,58	3,97882199
3	0	335698,58	3,97832561
3	0	335758,58	3,97786736
3	0	335818,58	3,97756171
3	0	335878,58	3,97719908
3	0	335938,58	3,97672153
3	0	335998,58	3,97626328
3	0	336058,58	3,97582412
3	0	336118,58	3,97557592
3	0	336178,58	3,97509861
3	0	336238,58	3,97462106
3	0	336298,58	3,97435379
3	0	336358,58	3,97395277
3	0	336418,58	3,97345638
3	0	336478,58	3,97315073
3	0	336538,58	3,97296
3	0	336598,58	3,97248244
3	0	336658,58	3,97225332
3	0	336718,58	3,97183323
3	0	336778,58	3,97145128
3	0	336838,58	3,97106957
3	0	336898,58	3,97076392
3	0	336958,59	3,97049665
3	0	337018,59	3,97011471
3	0	337078,59	3,96977115
3	0	337138,59	3,96950364
3	0	337198,59	3,96908355
3	0	337258,59	3,96883535
3	0	337318,59	3,96843433
3	0	337378,59	3,96828175
3	0	337438,59	3,96793795
3	0	337498,59	3,96774697
3	0	337558,59	3,96730781
3	0	337618,59	3,96702147
3	0	337678,59	3,96681142
3	0	337738,59	3,96648669
3	0	337798,59	3,96608567
3	0	337858,59	3,96585655
3	0	337918,59	3,96553206
3	0	337978,59	3,96524549
3	0	338038,59	3,96507359
3	0	338098,59	3,96482539
3	0	338158,59	3,96446276
3	0	338218,59	3,964329
3	0	338278,59	3,96402359
3	0	338338,59	3,96375608
3	0	338398,59	3,96350789
3	0	338458,59	3,96324062
3	0	338518,59	3,96289682
3	0	338578,59	3,9626677
3	0	338638,59	3,96243858
3	0	338698,59	3,9621141
3	0	338758,59	3,96190405
3	0	338818,59	3,96175122
3	0	338878,59	3,96148396
3	0	338938,59	3,9611783
3	0	338998,59	3,96098733
3	0	339058,59	3,96079636
3	0	339118,59	3,96054816
3	0	339178,59	3,96033812
3	0	339238,59	3,9600327
3	0	339298,59	3,95980358
3	0	339358,59	3,95961261
3	0	339418,59	3,95928788
3	0	339478,59	3,95911598
3	0	339538,59	3,95886779
3	0	339598,59	3,95877242
3	0	339658,59	3,95844769
3	0	339718,59	3,95823765
3	0	339778,59	3,95812321
3	0	339838,59	3,95785594
3	0	339898,59	3,95758843
3	0	339958,59	3,95737839
3	0	340018,59	3,95713019
3	0	340078,59	3,95693922
3	0	340138,59	3,95686293
3	0	340198,59	3,95657635
3	0	340258,59	3,95638561
3	0	340318,59	3,95615649
3	0	340378,59	3,95590806
3	0	340438,59	3,95569801
3	0	340498,59	3,95562172
3	0	340558,59	3,95527792
3	0	340618,59	3,95506787
3	0	340678,59	3,9548769
3	0	340738,59	3,95474339
3	0	340798,60	3,95457149
3	0	340858,60	3,95447612
3	0	340918,60	3,95415139
3	0	340978,60	3,95397949
3	0	341038,60	3,95371222
3	0	341098,60	3,953655
3	0	341158,60	3,9533112
3	0	341218,60	3,95310116
3	0	341278,60	3,95294833
3	0	341338,60	3,9527576
3	0	341398,60	3,95260477
3	0	341458,60	3,95243287
3	0	341518,60	3,95220375
3	0	341578,60	3,95208907
3	0	341638,60	3,95185995
3	0	341698,60	3,95166898
3	0	341758,60	3,95155454
3	0	341818,60	3,95143986
3	0	341878,60	3,95117259
3	0	341938,60	3,95094347
3	0	341998,60	3,95088625
3	0	342058,60	3,95056152
3	0	342118,60	3,95044708
3	0	342178,60	3,95027518
3	0	342238,60	3,95012236
3	0	342298,60	3,95000792
3	0	342358,60	3,94987416
3	0	342418,60	3,94956875
3	0	342478,60	3,94949222
3	0	342538,60	3,94928217
3	0	342598,60	3,94903398
3	0	342658,60	3,94903398
3	0	342718,60	3,94886208
3	0	342778,60	3,94874763
3	0	342838,60	3,94848013
3	0	342898,60	3,94836569
3	0	342958,60	3,94825101
3	0	343018,60	3,94806004
3	0	343078,60	3,94790745
3	0	343138,60	3,94783092
3	0	343198,60	3,94762087
3	0	343258,60	3,94739175
3	0	343318,60	3,94721985
3	0	343378,60	3,94708633
3	0	343438,60	3,94697165
3	0	343498,60	3,94689536
3	0	343558,60	3,94664717
3	0	343618,57	3,94653249