Folder: thesis/Experimentelles/Rohdaten/Batteriemessungen/AlteZelle/Studenten_Batterietests/Sonstige/ZView-Export (part 8)

File: S vs Li_02_CV_C02_loop6.txt
EC-Lab ASCII FILE
Nb header lines : 3
mode	ox/red	error	control changes	counter inc.	time/s	control/V	Ewe/V	<I>/mA	cycle number	(Q-Qo)/C	P/W
2	0	0	1	0	8040,75	2,39355302	2,39390588	-0,02476387843489647	7	0	5,92823926E-005
2	0	0	0	0	8047,27	2,32834339	2,32843518	-0,34898965580699405	7	-0,00118336745	0,000812599785
2	0	0	0	0	8053,77	2,26333475	2,2638464	-0,73717038426548326	7	-0,00467731617	0,00166884053
2	0	0	1	0	8060,31	2,19802594	2,19852662	-1,1712663027768384	7	-0,0109201111	0,00257506012
2	0	0	1	0	8066,81	2,13301682	2,13353682	-1,6168300583958589	7	-0,0199838765	0,00344956643
2	0	0	0	0	8073,31	2,06800771	2,06841707	-2,0821072869002874	7	-0,0319774747	0,00430666609
2	0	0	0	0	8079,81	2,00299883	2,00334764	-2,5845010125388742	7	-0,0471481606	0,00517765386
2	0	0	1	0	8086,31	1,93799007	1,93832791	-3,074626009290416	7	-0,0655463785	0,00595963327
2	0	0	1	0	8092,81	1,87298107	1,87363875	-3,5698652255038432	7	-0,0871436298	0,00668863766
2	0	0	0	0	8099,31	1,80797219	1,80869913	-3,9986983562509267	7	-0,111743405	0,00723244203
2	0	0	0	0	8105,81	1,74296319	1,74353957	-4,3775305896997427	7	-0,138928846	0,00763239758
2	0	0	0	0	8112,31	1,67795432	1,67850006	-4,6253400388835149	7	-0,168117315	0,0077636335
2	0	0	1	0	8118,81	1,61294544	1,61341035	-4,9521966179211974	7	-0,199291006	0,00798992533
2	0	0	1	0	8125,31	1,54793668	1,54852092	-5,2741205058992051	7	-0,232517928	0,00816708617
2	0	0	0	0	8131,82	1,48292768	1,48341131	-5,617939167966455	7	-0,267924517	0,00833371468
2	0	0	0	0	8138,32	1,41791868	1,41852188	-5,9891186617314893	7	-0,305969894	0,00849569589
2	0	0	1	0	8144,82	1,35290992	1,35321188	-6,2087284289300518	7	-0,345611662	0,00840172544
2	0	0	1	0	8151,32	1,28790092	1,28858292	-6,4499499946832947	7	-0,386818856	0,00831129495
2	0	0	0	0	8157,82	1,22289205	1,22365355	-6,7973824913302963	7	-0,430063665	0,00831764098
2	0	0	0	0	8164,32	1,15788317	1,15842354	-7,048351985712841	7	-0,474992126	0,00816497672
2	0	0	1	0	8170,82	1,09287405	1,09335387	-7,1764371767640115	7	-0,521185279	0,00784638524
2	0	0	1	0	8177,32	1,02786541	1,02839434	-7,3471898188193587	7	-0,568463981	0,00755580841
2	0	0	0	0	8183,82	0,962856472	0,9631446	-7,563135333359241	7	-0,617039084	0,00728439307
2	0	0	0	0	8190,32	0,897847533	0,89842546	-7,7329469770193165	7	-0,666754127	0,00694747642
2	0	0	1	0	8196,82	0,832838655	0,833335757	-7,8545681687196237	7	-0,717461407	0,00654549245
2	0	0	1	0	8203,33	0,767829716	0,768316209	-7,9835522944728717	7	-0,769211173	0,00613389257
2	0	0	1	0	8209,83	0,702820778	0,703296661	-8,119547155996201	7	-0,821622193	0,00571045047
2	0	0	0	0	8216,33	0,63781184	0,638216913	-8,1823451220989222	7	-0,874571919	0,00522211101
2	0	0	0	0	8222,83	0,572802961	0,573257446	-8,302264312903127	7	-0,928260744	0,00475933496
2	0	0	1	0	8229,33	0,507794082	0,508318007	-8,4513190562526285	7	-0,982802093	0,00429595774
2	1	0	0	0	8235,79	0,556800783	0,557525814	-7,7818856487671629	7	-1,0353539	0,00433860207
2	1	0	0	0	8242,29	0,621809661	0,622325063	-7,2246968746185446	7	-1,08399165	0,00449611014
2	1	0	0	0	8248,79	0,6868186	0,686994195	-6,6677164956927206	7	-1,12908626	0,00458068261
2	1	0	1	0	8255,29	0,751827538	0,752274156	-6,2457330885032998	7	-1,17100465	0,00469850376
2	1	0	1	0	8261,79	0,816836476	0,817373753	-5,8489918559789581	7	-1,21025229	0,00478081265
2	1	0	0	0	8268,29	0,881845355	0,882283211	-5,4697594617803917	7	-1,24700165	0,00482587703
2	1	0	0	0	8274,80	0,946854234	0,947392881	-5,0728549013535373	7	-1,2812798	0,00480598677
2	1	0	1	0	8281,30	1,01186311	1,0122323	-4,6866291152934278	7	-1,31298625	0,00474395743
2	1	0	1	0	8287,80	1,07687199	1,07749212	-4,3293538925548346	7	-1,34226513	0,00466484483
2	1	0	0	0	8294,30	1,14188087	1,14254165	-4,008774703989424	7	-1,36932802	0,00458019227
2	1	0	0	0	8300,80	1,20688975	1,20740104	-3,6654107458889536	7	-1,39421153	0,00442562066
2	1	0	1	0	8307,30	1,27189875	1,27238071	-3,3309704015652531	7	-1,41691864	0,00423826231
2	1	0	1	0	8313,80	1,33690763	1,33747029	-3,0189669970422982	7	-1,43758881	0,00403777882
2	1	0	0	0	8320,30	1,4019165	1,40241981	-2,7200232042620557	7	-1,45624959	0,00381461438
2	1	0	0	0	8326,80	1,4669255	1,4673692	-2,415892174467441	7	-1,47295022	0,00354500581
2	1	0	0	0	8333,30	1,53193414	1,53246808	-2,1249307770812038	7	-1,48771465	0,00325638847
2	1	0	1	0	8339,80	1,59694326	1,59725797	-1,8571952053656275	7	-1,50065804	0,00296641979
2	1	0	1	0	8346,31	1,66195214	1,66239786	-1,5915210793415824	7	-1,51187289	0,00264574122
2	1	0	0	0	8352,81	1,72696114	1,72743738	-1,330316343344748	7	-1,52137792	0,00229803822
2	1	0	0	0	8359,31	1,79197001	1,79267728	-1,0741694824149235	7	-1,52918124	0,00192563923
2	1	0	1	0	8365,81	1,85697889	1,85757661	-0,82895516852537869	7	-1,53535748	0,0015398477
2	1	0	1	0	8372,31	1,92198789	1,92274654	-0,58671737462282176	7	-1,53994763	0,00112810882
2	1	0	0	0	8378,85	1,98739684	1,9880265	-0,35565945963996134	7	-1,54302859	0,000707060448
2	1	0	0	0	8385,35	2,05240583	2,05290556	-0,13344368032024568	7	-1,54461193	0,000273947284
2	1	0	1	0	8391,97	2,11861467	2,11911678	0,084507108258548902	7	-1,54476893	0,000179080438
2	1	0	1	0	8398,51	2,18402362	2,18445683	0,29669422920172384	7	-1,54351842	0,000648115762
2	1	0	0	0	8405,01	2,24903274	2,24960685	0,50621395356332141	7	-1,54090714	0,00113878236
2	1	0	0	0	8411,51	2,31404138	2,31452608	0,71899819156775795	7	-1,53691828	0,00166414003
2	1	0	1	0	8418,02	2,37905025	2,37954593	0,93894556971887693	7	-1,53152335	0,00223426404
2	1	0	1	0	8424,56	2,44445944	2,44499588	1,1620742057760552	7	-1,52465653	0,00284126657
2	1	0	0	0	8431,06	2,50946856	2,5098052	1,3962566762541728	7	-1,51635158	0,00350433215
2	1	0	0	0	8437,56	2,5744772	2,57507515	1,6411652980993238	7	-1,50648558	0,00422612391
2	1	0	0	0	8444,06	2,63948512	2,63995337	1,8820327061220397	7	-1,49503517	0,00496847881
2	1	0	1	0	8450,56	2,70449519	2,70505428	2,125188132747999	7	-1,48200262	0,00574874924
2	1	0	1	0	8457,06	2,76950407	2,76997352	2,4045615028589894	7	-1,46729338	0,00666057179
2	1	0	0	0	8463,56	2,83451271	2,83490324	2,6958366204053091	7	-1,45074248	0,00764243584
2	1	0	0	0	8470,06	2,89952207	2,90002298	2,9632931196441203	7	-1,43236303	0,00859361794
2	1	0	1	0	8476,56	2,96453071	2,96507239	3,2680281276504243	7	-1,41213489	0,00968994014
2	1	0	1	0	8483,06	3,02953959	3,02999187	3,5375632035235539	7	-1,3900429	0,010718788
2	1	0	0	0	8489,57	3,0945487	3,09501147	3,8185988118251117	7	-1,36613774	0,0118186073
2	1	0	0	0	8496,07	3,1595571	3,15985084	4,1234365664422515	7	-1,3403374	0,013029444
2	1	0	1	0	8502,57	3,22456598	3,22511029	4,4367379173636435	7	-1,31266773	0,0143089695
2	1	0	1	0	8509,07	3,28957534	3,29005957	4,6822258830070214	7	-1,2830354	0,0154048018
2	1	0	0	0	8515,57	3,35458398	3,35497952	5,0508022730549203	7	-1,25136614	0,0169453379
2	1	0	0	0	8522,07	3,41959286	3,42003918	5,5520792417228154	7	-1,21720541	0,0189883281
2	1	0	1	0	8528,57	3,48460293	3,48498917	5,9454974655444032	7	-1,17968273	0,0207199939
2	1	0	1	0	8535,07	3,54961061	3,55031848	6,2439981314043034	7	-1,14000511	0,0221681818
2	1	0	1	0	8541,57	3,61461973	3,61525774	6,6912943646312038	7	-1,09795892	0,0241907537
2	1	0	0	0	8548,07	3,67962861	3,68023729	6,9919501716891827	7	-1,05415344	0,0257320367
2	1	0	0	0	8554,57	3,74463749	3,74510694	7,3685692523916083	7	-1,00765789	0,0275960807
2	1	0	1	0	8561,07	3,80964637	3,81016636	7,9195689062277376	7	-0,958020866	0,0301748756
2	1	0	1	0	8567,58	3,87465525	3,8752861	8,2937209804852608	7	-0,905135393	0,0321405418
2	1	0	0	0	8574,08	3,93966436	3,94030571	8,8761756072441638	7	-0,849816024	0,034974847
2	1	0	0	0	8580,58	4,004673	4,00522518	9,4637955824534362	7	-0,790569663	0,0379046313
2	1	0	1	0	8587,12	4,07008219	4,07050514	10,237528791030254	7	-0,72559607	0,0416719131
2	1	0	1	0	8593,62	4,13509083	4,13574505	11,492327938477131	7	-0,655880213	0,0475293398
2	1	0	0	0	8600,10	4,19990063	4,20047474	12,654888987541184	7	-0,578179896	0,0531565398
2	0	0	1	1	8606,54	4,13569117	4,13632584	12,180943846702576	7	-0,49751243	0,0503843538
2	0	0	1	1	8613,04	4,07068205	4,07103634	11,046612910926357	7	-0,42219758	0,0449711643
2	0	0	0	1	8619,54	4,00567341	4,00615644	9,6032965605457152	7	-0,355126977	0,0384723097
2	0	0	0	1	8626,04	3,94066453	3,94101691	8,353175044059753	7	-0,296534449	0,0329200029
2	0	0	1	1	8632,55	3,87565565	3,87616754	7,2716879323124915	7	-0,24587743	0,0281862803
2	0	0	1	1	8639,05	3,81064653	3,8112781	6,2799078921476902	7	-0,201994285	0,0239344761
2	0	0	0	1	8645,55	3,74563766	3,74580765	5,4101501268645293	7	-0,164065793	0,0202653818
2	0	0	0	1	8652,09	3,68022871	3,68078828	4,7066531243423616	7	-0,131201401	0,0173241943
2	0	0	0	1	8658,59	3,61522055	3,61576962	4,2334486462175674	7	-0,102253005	0,015307175
2	0	0	1	1	8665,09	3,55021095	3,55086946	3,7807922934492384	7	-0,0762681141	0,0134250997
2	0	0	1	1	8671,59	3,48520184	3,48564935	3,3778527875741274	7	-0,0530417003	0,01177401
2	0	0	0	1	8678,09	3,42019296	3,42067981	3,0402316755304672	7	-0,0322074108	0,0103996592
2	0	0	0	1	8684,59	3,35518408	3,35575032	2,7518325317651069	7	-0,0133600272	0,00923446286
2	0	0	1	1	8691,09	3,2901752	3,29074097	2,5062360453108995	7	0,00371097471	0,00824737363
2	0	0	1	1	8697,59	3,22516632	3,2257812	2,2638188054164275	7	0,0191761721	0,00730258413
2	0	0	0	1	8704,10	3,1601572	3,16076183	2,0400899052619898	7	0,0331663564	0,00644823816
2	0	0	0	1	8710,60	3,0951488	3,09552217	1,8755774851888419	7	0,0458663665	0,00580589147
2	0	0	1	1	8717,10	3,03013968	3,03059268	1,6943216832975523	7	0,0574677065	0,00513479905
2	0	0	1	1	8723,60	2,96513081	2,96568322	1,539634071911376	7	0,0679654256	0,0045660669
2	0	0	0	1	8730,10	2,90012217	2,90085411	1,3817448898528966	7	0,0774526745	0,00400824053
2	0	0	0	1	8736,60	2,83511305	2,83581424	1,2248115353286266	7	0,0859130919	0,00347333797
2	0	0	1	1	8743,10	2,77010298	2,77062345	1,0641009680505658	7	0,0933543593	0,00294822315
2	0	0	1	1	8749,60	2,70509529	2,70551467	0,91186303241799219	7	0,0997782275	0,00246705883
2	0	0	1	1	8756,10	2,64008617	2,64059544	0,75752289375911014	7	0,105204053	0,00200031139
2	0	0	0	1	8762,60	2,5750773	2,57559586	0,59107231302186752	7	0,109588228	0,0015223634
2	0	0	0	1	8769,14	2,50966859	2,51012588	0,40329835703596294	7	0,112853788	0,00101232959
2	0	0	1	1	8775,64	2,44465947	2,44506598	0,18037695666619856	7	0,114775352	0,000441033568
2	0	0	1	1	8780,71	2,39395308	2,39462686	-0,024011673198805914	7	0,115183428	5,74989972E-005

File: S vs Li_02_CV_C02_loop7.txt
EC-Lab ASCII FILE
Nb header lines : 3
mode	ox/red	error	control changes	counter inc.	time/s	control/V	Ewe/V	<I>/mA	cycle number	(Q-Qo)/C	P/W
2	0	0	1	0	8780,86	2,39425302	2,39542794	-0,02055450715124607	8	0	4,92368417E-005
2	0	0	0	0	8787,43	2,32854342	2,32898593	-0,33345544850453869	8	-0,00113259279	0,000776613073
2	0	0	0	0	8793,98	2,26303434	2,26361585	-0,70858937703693875	8	-0,00451168651	0,00160397415
2	0	0	1	0	8800,56	2,19722557	2,1980257	-1,1273767976090301	8	-0,0105490983	0,00247800327
2	0	0	1	0	8807,11	2,13171649	2,13220525	-1,5548619202648589	8	-0,0193323586	0,00331528485
2	0	0	0	0	8813,66	2,06620765	2,06657457	-2,0061657677094173	8	-0,0309579577	0,00414589094
2	0	0	0	0	8820,21	2,0006988	2,00144482	-2,5208292069534461	8	-0,0457712039	0,00504530035
2	0	0	1	0	8826,76	1,93518949	1,93570435	-3,0186109828452314	8	-0,0638827533	0,00584313832
2	0	0	1	0	8833,31	1,86968064	1,87015414	-3,4871259070932934	8	-0,0852048025	0,00652146293
2	0	0	0	0	8839,87	1,80417168	1,80474401	-3,9290115622182765	8	-0,109545268	0,00709086005
2	0	0	0	0	8846,42	1,73866272	1,73920345	-4,335648919145271	8	-0,136626974	0,00754057569
2	0	0	1	0	8852,97	1,67315376	1,67364323	-4,6445139298836435	8	-0,165980846	0,00777325919
2	0	0	1	0	8859,52	1,60764468	1,60804296	-4,982272052516521	8	-0,197592914	0,0080117071
2	0	0	0	0	8866,07	1,54213583	1,54243267	-5,294632100810617	8	-0,231348068	0,00816661306
2	0	0	0	0	8872,62	1,47662675	1,47704256	-5,6149076918761088	8	-0,267174184	0,00829345733
2	0	0	1	0	8879,17	1,41111779	1,41177261	-5,9296232101818022	8	-0,304905593	0,00837127957
2	0	0	1	0	8885,72	1,34560883	1,346012	-6,1892189110318938	8	-0,344661206	0,00833076332
2	0	0	0	0	8892,27	1,28009987	1,28052175	-6,4172999560832973	8	-0,386058867	0,00821749214
2	0	0	0	0	8898,82	1,21459091	1,21511173	-6,6485757653912077	8	-0,428860247	0,00807876233
2	0	0	1	0	8905,37	1,14908195	1,14974153	-6,794117763638496	8	-0,472982764	0,00781147927
2	0	0	1	0	8911,93	1,08357286	1,08411133	-6,9633916343251917	8	-0,517980933	0,00754909171
2	0	0	0	0	8918,48	1,0180639	1,0187912	-7,1388982112208909	8	-0,564163148	0,00727304677
2	0	0	0	0	8925,03	0,95255512	0,953140736	-7,2747213616967206	8	-0,61152488	0,00693383347
2	0	0	1	0	8931,58	0,887046099	0,887510359	-7,424044420321792	8	-0,659682572	0,00658891629
2	0	0	1	0	8938,13	0,821537018	0,821970105	-7,5726341033975334	8	-0,708917558	0,00622447906
2	0	0	0	0	8944,68	0,756028056	0,756439805	-7,6571008016665306	8	-0,758831859	0,00579213584
2	0	0	0	0	8951,23	0,690519154	0,69086951	-7,6466121350725581	8	-0,808902621	0,00528281135
2	0	0	1	0	8957,78	0,625010133	0,62558955	-7,6175180946787149	8	-0,858910501	0,00476543978
2	0	0	1	0	8964,33	0,559501112	0,55980891	-7,6578456684947162	8	-0,908839405	0,00428693043
2	1	0	0	0	8970,81	0,505293667	0,505634308	-7,6547522768378278	8	-0,958606422	0,00387050537
2	1	0	0	0	8977,37	0,570801973	0,571214736	-6,9905675566532467	8	-1,0064038	0,00399311539
2	1	0	1	0	8983,92	0,63631171	0,636985242	-6,5004875635107456	8	-1,05051076	0,00414071465
2	1	0	0	0	8990,47	0,701820672	0,702335298	-6,0576295914749248	8	-1,09163308	0,00425448688
2	1	0	0	0	8997,02	0,767329633	0,767755389	-5,6911965434749875	8	-1,13022768	0,00436944701
2	1	0	0	0	9003,57	0,832838833	0,833275199	-5,3246188677345645	8	-1,16634047	0,0044368729
2	1	0	1	0	9010,12	0,898347676	0,898715854	-4,9325149754683366	8	-1,19995117	0,00443292921
2	1	0	1	0	9016,67	0,963855505	0,964446366	-4,5592867287441549	8	-1,23108888	0,00439718738
2	1	0	0	0	9023,22	1,02936554	1,02994657	-4,2389358902971066	8	-1,25989032	0,00436587725
2	1	0	0	0	9029,77	1,09487426	1,09542668	-3,9015542943362893	8	-1,28652239	0,00427386677
2	1	0	1	0	9036,32	1,16038346	1,16088688	-3,5740426729122989	8	-1,31103134	0,0041490593
2	1	0	1	0	9042,87	1,22589254	1,2266475	-3,2560075956086368	8	-1,33342743	0,0039939736
2	1	0	0	0	9049,43	1,29140139	1,29178727	-2,9543599182119066	8	-1,3537519	0,00381640461
2	1	0	0	0	9055,98	1,35691118	1,35738885	-2,6762367783207565	8	-1,37216544	0,00363269402
2	1	0	1	0	9062,53	1,42241943	1,42278779	-2,3984378116826192	8	-1,38876748	0,00341246813
2	1	0	1	0	9069,08	1,48792839	1,48839819	-2,1297377993663139	8	-1,40360558	0,00316989794
2	1	0	0	0	9075,63	1,55343735	1,55385828	-1,8732083278397766	8	-1,4166857	0,00291070016
2	1	0	0	0	9082,18	1,61894631	1,61916828	-1,6248320645342282	8	-1,42813289	0,00263087661
2	1	0	1	0	9088,73	1,68445528	1,68483889	-1,3839994256074277	8	-1,43797243	0,00233181613
2	1	0	1	0	9095,28	1,74996424	1,75051928	-1,1453003097946421	8	-1,44624162	0,00200487021
2	1	0	0	0	9101,83	1,8154732	1,81603944	-0,90891815256327744	8	-1,45295978	0,00165063119
2	1	0	0	0	9108,38	1,88098204	1,88146949	-0,68525785719975514	8	-1,45817363	0,00128929177
2	1	0	1	0	9114,97	1,94689119	1,94727027	-0,46736159175634387	8	-1,46196759	0,00091007934
2	1	0	1	0	9121,52	2,01240063	2,01289034	-0,25829377137123501	8	-1,46433377	0,000519917055
2	1	0	0	0	9128,08	2,07790923	2,07846117	-0,051753678533714266	8	-1,46534228	0,000107568012
2	1	0	1	0	9134,79	2,14501834	2,14558339	0,1519337488183128	8	-1,46500707	0,000325986533
2	1	0	1	0	9141,34	2,21052742	2,21087337	0,34861698164604602	8	-1,4633646	0,000770748011
2	1	0	0	0	9147,89	2,2760365	2,27674413	0,54635459401955136	8	-1,4604286	0,00124390959
2	1	0	0	0	9154,44	2,34154534	2,34205413	0,74230695391694912	8	-1,45621419	0,00173852302
2	1	0	1	0	9160,99	2,40705419	2,40737391	0,94336344425876634	8	-1,45070326	0,00227102847
2	1	0	1	0	9167,57	2,4728632	2,47320485	1,1580522498115898	8	-1,44380271	0,0028641005
2	1	0	0	0	9174,12	2,53837228	2,53890538	1,3648493175829426	8	-1,43552244	0,00346522336
2	1	0	0	0	9180,67	2,60388136	2,60424519	1,5877341621865818	8	-1,42586219	0,00413484918
2	1	0	1	0	9187,22	2,6693902	2,66975546	1,8209213372319936	8	-1,41467416	0,0048614149
2	1	0	1	0	9193,77	2,73489928	2,73556614	2,0624730885028803	8	-1,40193808	0,00564203132
2	1	0	1	0	9200,33	2,80040812	2,80102658	2,3257977593909872	8	-1,38755786	0,00651462143
2	1	0	0	0	9206,88	2,86591721	2,86647677	2,5823247022926736	8	-1,37144017	0,00740217371
2	1	0	1	0	9213,43	2,93142605	2,93193674	2,8489834915101539	8	-1,35361767	0,00835303962
2	1	0	1	0	9219,98	2,99693513	2,99725676	3,1226554332921914	8	-1,33407617	0,00935939979
2	1	0	0	0	9226,53	3,06244469	3,0628581	3,3503142308737498	8	-1,31285131	0,0102615375
2	1	0	0	0	9233,08	3,12795281	3,12861753	3,6064871164659565	8	-1,29006732	0,0112833185
2	1	0	0	0	9239,63	3,19346142	3,19380689	3,8692998954692666	8	-1,26570725	0,0123577965
2	1	0	1	0	9246,18	3,25897098	3,25941777	4,1681118011474611	8	-1,23954773	0,0135856178
2	1	0	0	0	9252,73	3,32447982	3,32500815	4,4284259316821843	8	-1,21130764	0,0147245526
2	1	0	0	0	9259,28	3,38998914	3,39040828	4,7047439639766893	8	-1,18124914	0,015951002
2	1	0	1	0	9265,83	3,4554987	3,45611048	4,8813665552517594	8	-1,14935482	0,0168705415
2	1	0	1	0	9272,39	3,52100682	3,52151871	4,9861386455595354	8	-1,11633909	0,0175587814
2	1	0	1	0	9278,94	3,58651519	3,58704734	5,4721385041101766	8	-1,08202088	0,0196288191
2	1	0	0	0	9285,49	3,65202498	3,65248942	5,8596710562705856	8	-1,04485893	0,0214023869
2	1	0	0	0	9292,04	3,71753263	3,71821856	6,1439104785478874	8	-1,0058558	0,0228444021
2	1	0	1	0	9298,59	3,78304267	3,78341961	6,559006998936311	8	-0,964085758	0,0248154756
2	1	0	0	0	9305,14	3,8485527	3,84892178	7,4749154857345203	8	-0,917918324	0,0287703648
2	1	0	0	0	9311,69	3,91406059	3,91457033	8,0101072887579226	8	-0,867080569	0,0313561298
2	1	0	0	0	9318,24	3,97956991	3,98014116	9,0838355495589235	8	-0,810714543	0,0361549482
2	1	0	1	0	9324,79	4,04507875	4,04568052	9,5890685766935206	8	-0,749617696	0,0387943089
2	1	0	0	0	9331,38	4,11098814	4,11153126	10,940046296309885	8	-0,681570053	0,0449803434
2	1	0	0	0	9337,93	4,17649698	4,17727184	11,350959802667232	8	-0,608204246	0,0474160463
2	0	0	1	1	9344,42	4,15869427	4,15916729	10,901692469914742	8	-0,535035193	0,0453419611
2	0	0	0	1	9350,97	4,09318542	4,09374714	10,224244028329827	8	-0,465146184	0,0418554693
2	0	0	0	1	9357,52	4,02767658	4,02818727	9,3783284624417715	8	-0,400868952	0,0377776623
2	0	0	1	1	9364,07	3,96216726	3,96262646	8,4383814831574566	8	-0,342671394	0,0334381536
2	0	0	1	1	9370,62	3,89665842	3,89708614	7,4149645492434214	8	-0,290456831	0,0288967565
2	0	0	0	1	9377,17	3,83114958	3,83166575	6,5399324297904973	8	-0,244834527	0,0250588357
2	0	0	0	1	9383,72	3,76564026	3,76627588	5,7052604618171757	8	-0,204819039	0,0214875843
2	0	0	1	1	9390,31	3,69973135	3,70016503	4,9308207929134227	8	-0,169880003	0,0182448514
2	0	0	1	1	9396,86	3,63422251	3,63466477	4,367083909610912	8	-0,139431775	0,0158728864
2	0	0	0	1	9403,41	3,56871319	3,56941462	3,797336251785367	8	-0,112684287	0,0135542676
2	0	0	0	1	9409,97	3,50320435	3,50373411	3,4368563741445613	8	-0,0890305787	0,0120418305
2	0	0	1	1	9416,52	3,4376955	3,43814397	3,0687231551855731	8	-0,0677925944	0,0105507122
2	0	0	1	1	9423,07	3,37218666	3,3725636	2,7695458171268291	8	-0,0486607812	0,00934046973
2	0	0	0	1	9429,62	3,30667734	3,30705333	2,5237462663402131	8	-0,0313235447	0,00834616367
2	0	0	0	1	9436,17	3,24116826	3,24159336	2,2897895276546477	8	-0,0155861173	0,00742256641
2	0	0	1	1	9442,72	3,17565942	3,17617297	2,1018939204514061	8	-0,00122813892	0,00667597866
2	0	0	1	1	9449,27	3,11015058	3,11073303	1,9324073195457424	8	0,0119014308	0,0060112034
2	0	0	0	1	9455,82	3,04464173	3,04521275	1,7397514296074698	8	0,0239089187	0,00529791322
2	0	0	0	1	9462,37	2,97913289	2,97954226	1,5734013865391389	8	0,0347493999	0,00468801614
2	0	0	1	1	9468,92	2,91362381	2,91421223	1,4228841153283885	8	0,0445174426	0,00414658617
2	0	0	1	1	9475,47	2,84811497	2,84867191	1,2776792319491488	8	0,0533800647	0,00363968895
2	0	0	0	1	9482,03	2,78260589	2,78309155	1,110461700086792	8	0,0612036027	0,00309051666
2	0	0	0	1	9488,58	2,71709681	2,71756124	0,93846561852842394	8	0,0679273605	0,0025503377
2	0	0	1	1	9495,13	2,65158796	2,65207124	0,78243020114799219	8	0,0735830516	0,00207506074
2	0	0	1	1	9501,68	2,58607888	2,5865109	0,60156194710483034	8	0,0781349167	0,00155594654
2	0	0	0	1	9508,27	2,52016973	2,52054	0,41589094791561274	8	0,0815001205	0,0010482698
2	0	0	0	1	9514,82	2,45466089	2,45536017	0,21261351283950125	8	0,0835815296	0,000522042741
2	0	0	1	1	9520,82	2,39465308	2,39510751	-0,007691615977539465	8	0,0842093602	1,84222463E-005