Folder: thesis/Experimentelles/Ausgewaehlte_Daten/Li_Halbzelle

Note: README.md
# thesis

Zusammenfassung
---------------
Es konnten die Festkörperelektrolytkeramiken LATP, LAGP, LTO und LLTO hergestellt,
mit XRD und MAS-NMR charakterisiert und zu Elektrodensuspensionen weiterverarbeitet
werden. Aus den Daten der MAS-NMR konnten dabei gegenüber der XRD keine Mehrinfor-
mationen gewonnen werden. Die mit den Suspensionen gegossenen und gestanzten Elektro-
denproben wurden mittels REM und EDX untersucht und als Kathode in Testzellen verbaut.
Mit diesen wurden Ladekennlinien erstellt und eine zyklischer Voltametrie durchgeführt. Aus
den Ladekennlinien konnten die Kapazitäten und der Grad der Lithiuminsertation in die
Materialen bestimmt werden. Die zyklische Voltametrie lieferte nicht-reaktive Spannungsbe-
reiche der Materialien.

Für ein noch besseres Verständnis der Lithiumbewegung und -insertation wurde eine in-situ
NMR-Testzelle konzipiert, konstruiert, gebaut und getestet. Für den Test kam dabei eine
Lithium-Schwefel-Zelle zum Einsatz, für welche ein Di?usionskoe?zient sowie ein Spektrum
vor und nach einer 90 minütigen Ladezeit aufgenommen worden ist.

Abstract
--------
The all solid state electrolyte ceramics LATP, LAGP, LTO, and LLTO were successfully
synthesized and characterized by using XRD. MAS-NMR spectroscopy were not able to ge-
nerate additional information. All powders were processed to electrode slurries, casted on
aluminum foils and punched to electrode samples. Those samples were studied by SEM and
EDX and then build into battery test cells. The cells were analyzed by measuring the charge
curves as well as cyclic voltammetry. With the charge curves capacities and the amount of
lithium insertion were calculated. The cyclic voltammetry was able to detect non-reactive
voltage regions.

To be able to better understand lithium movement and insertion a novel in-situ NMR sample
cell was designed, constructed, built and tested. Therefore, a lithium-sulfur-cell was built into
the in-situ sample cell. With this setting a diffusion coeffcient as well as a NMR spectrum
before and after 90 minutes of charging were measured.

File: LiC_Halbzelle_02_PEIS_C03.mpt
EC-Lab ASCII FILE
Nb header lines : 68

Potentio Electrochemical Impedance Spectroscopy

Run on channel : 3 (SN 6987)
Grouped channel(s) : 3
User :
CE vs. WE compliance from -10 V to 10 V
Electrode connection : standard
Ewe ctrl range : min = 0,00 V, max = 5,00 V
Acquisition started on : 09.10.2015 17:32:59
Saved on :
	File : LiC_Halbzelle_02_PEIS_C03.mpr
	Directory : C:\Gielisch\AlteZelle\150910_Li_Halbzelle\
	Host : 192.168.0.2
Device : VMP3 (SN 0324)
Address : 192.168.0.1
EC-Lab for windows v10.33 (software)
Internet server v10.33 (firmware)
Command interpretor v10.32 (firmware)
Electrode material :
Initial state :
Electrolyte :
Comments :
Mass of active material : 0,001 mg
 at x = 0,000
Molecular weight of active material (at x = 0) : 0,001 g/mol
Atomic weight of intercalated ion : 0,001 g/mol
Acquisition started at : xo = 0,000
Number of e- transfered per intercalated ion : 1
for DX = 1, DQ = 26,801 mA.h
Battery capacity : 0,000 A.h
Electrode surface area : 0,001 cm²
Characteristic mass : 0,001 g
Multi Sine          0
E (V)               0,0000
vs.                 Eoc
tE (h:m:s)          0:00:0,0000
record              0
dI                  0,000
unit dI             mA
dt (s)              0,000
fi                  1,000
unit fi             MHz
ff                  1,000
unit ff             Hz
Sel Nd              1
Nd                  6
Nt                  51
Log                 1
Va (mV)             10,0
pw                  0,10
Na                  2
E range min (V)     0,000
E range max (V)     5,000
I Range             Auto
Bandwidth           5
corr                0
nc cycles           0
goto Ns'            0
nr cycles           0
inc. cycle          0

Number of loops : 1
Loop 0 from point number 0 to 36

freq/Hz	Re(Z)/Ohm	-Im(Z)/Ohm	|Z|/Ohm	Phase(Z)/deg	time/s	<Ewe>/V	<I>/mA	Cs/µF	Cp/µF	cycle number	I Range	|Ewe|/V	|I|/A	Re(Y)/Ohm-1	Im(Y)/Ohm-1	|Y|/Ohm-1	Phase(Y)/deg
1000024,25	17,1361656	-2,13151431	17,2682228	7,09042549	3,4440	3,16151285	-0,00217254553	-0,0746657401	-0,00113763404	1	10	0,000358684425	2,07713583E-005	0,0574669763	-0,00714813871	0,0579098389	-7,09042549
681286,5	15,0924463	0,0914067551	15,0927229	-0,347005188	4,6760	3,16218829	0,00835018978	2,5557127	9,37418299E-005	1	10	0,00181749999	0,000120422272	0,0662558824	0,000401275902	0,0662570968	0,347005188
464160,125	15,5656948	1,30007374	15,6198931	-4,77436113	5,9080	3,16235495	0,00831476972	0,26374507	0,00182710786	1	10	0,00626538787	0,000401115918	0,0637987852	0,00532858446	0,0640209243	4,77436113
316223,094	16,1603355	2,26348448	16,3180828	-7,97321796	6,2220	3,16231751	0,00890775956	0,222356096	0,00427824678	1	10	0,0106337462	0,000651654147	0,0606892966	0,00850039814	0,0612817071	7,97321796
215441,859	16,8121433	2,98116541	17,0744114	-10,0552902	6,6380	3,16231465	0,00933478214	0,247801527	0,00755413296	1	10	0,0101760346	0,000595981604	0,0576675646	0,0102257365	0,0585671738	10,0552902
146777,328	17,4885902	3,68860865	17,8733501	-11,9099884	7,0540	3,16232777	0,00928629749	0,293967009	0,0125202164	1	10	0,0101638827	0,000568661315	0,0547448024	0,0115465065	0,0559492186	11,9099884
100024,406	18,126852	4,72740078	18,7331543	-14,6168985	7,3680	3,16197586	-0,00876998529	0,336582661	0,0214345697	1	10	0,0109313475	0,000583529472	0,0516535975	0,0134710232	0,053381294	14,6168985
68127,4297	18,8232479	5,81400919	19,700695	-17,1645508	7,6820	3,1623292	0,00925459713	0,40181157	0,0349953845	1	10	0,0106435101	0,000540260633	0,048498854	0,0149800284	0,0507596321	17,1645508
46411,125	19,6397285	7,472785	21,0133629	-20,8314838	7,9960	3,16232753	0,00982520822	0,458897352	0,0580349229	1	10	0,0103911255	0,000494500855	0,0444779061	0,0169235449	0,0475887656	20,8314838
31628,4121	20,7392941	9,77968884	22,9294701	-25,2463913	8,3100	3,16233158	0,00938140135	0,514538288	0,0936008394	1	10	0,0101932725	0,000444548961	0,0394462682	0,018601032	0,0436119996	25,2463913
21545,4082	22,2771854	12,8318205	25,7085323	-29,942255	8,5220	3,16232347	0,00907931104	0,575674653	0,143416494	1	10	0,0108935498	0,000423732854	0,0337058865	0,0194148365	0,0388975926	29,942255
14672,8496	24,3196106	16,8253746	29,572567	-34,6771889	8,8360	3,16232181	0,00903455354	0,644675136	0,208685532	1	10	0,0101016825	0,00034158965	0,0278085638	0,0192391872	0,0338151231	34,6771889
10015,2705	27,2392902	21,9575005	34,9872932	-38,8721695	9,0882	3,1623714	0,0107482476	0,72372663	0,285049081	1	10	0,0100976732	0,000288609735	0,0222523101	0,0179375112	0,0285818055	38,8721695
6856,00244	31,30303	28,5360584	42,3578377	-42,3525162	9,7996	3,162359	0,000982871745	0,813495517	0,369211793	1	11	0,0101380562	0,000239343091	0,0174469221	0,0159047339	0,0236083809	42,3525162
4642,42725	36,7237816	36,8455429	52,0214386	-45,0948296	10,2508	3,1623652	0,000858005369	0,930443645	0,466761768	1	11	0,00909068622	0,000174748842	0,013570088	0,013615082	0,0192228444	45,0948296
3160,05566	43,7366486	46,9831429	64,1896439	-47,0495071	10,7018	3,16235924	0,000822568079	1,07197177	0,574298322	1	11	0,00905961171	0,000141138211	0,0106148925	0,0114028165	0,0155788371	47,0495071
2152,93286	52,593605	59,4360428	79,3645401	-48,4951134	11,3683	3,162359	0,000796736742	1,24376905	0,69756794	1	11	0,00984851271	0,000124092097	0,00834987406	0,00943619385	0,0126000857	48,4951134
1468,58972	63,3472176	74,7180328	97,9574127	-49,7081566	11,8193	3,16236234	0,000784427568	1,45042157	0,843860149	1	11	0,00977935269	9,98326941E-005	0,00660165679	0,00778665347	0,0102085182	49,7081566
999,040405	76,3787613	94,0009766	121,119354	-50,9050522	12,2703	3,16236281	0,000790861144	1,69474649	1,02080405	1	11	0,00972950645	8,03299044E-005	0,00520649552	0,00640774565	0,00825631898	50,9050522
681,089661	91,2654266	118,49604	149,568344	-52,3966026	12,7208	3,16236115	0,000722506724	1,97202313	1,23777103	1	11	0,00969941542	6,48493879E-005	0,00407968741	0,00529693253	0,00668590656	52,3966026
464,553894	107,806633	150,618637	185,224854	-54,4064713	13,1723	3,16236258	0,000762511743	2,27460146	1,50405681	1	11	0,00967829674	5,22516093E-005	0,00314229494	0,00439015869	0,00539884344	54,4064713
316,315765	125,627754	194,78653	231,784653	-57,1799698	13,6213	3,16235614	0,000732017972	2,58309507	1,82426894	1	11	0,00966623984	4,17035371E-005	0,00233838614	0,00362568093	0,0043143495	57,1799698
215,344498	145,663101	258,946075	297,104034	-60,6412468	14,3168	3,16236591	5,80240776E-005	2,85415149	2,1680963	1	12	0,00976065267	3,28526439E-005	0,00165018451	0,00293354155	0,00336582446	60,6412468
146,737289	168,097351	348,785187	387,179321	-64,2682114	14,7638	3,16236711	6,90937886E-005	3,10972238	2,52355838	1	12	0,00970974658	2,5078165E-005	0,00112133822	0,00232666428	0,00258278265	64,2682114
99,9040375	195,992096	478,658417	517,229919	-67,7328033	15,2153	3,16236734	5,96091268E-005	3,32821512	2,8503325	1	12	0,00968092121	1,87168625E-005	0,000732607266	0,00178919814	0,00193337619	67,7328033
68,1888962	231,677704	661,746399	701,1297	-70,7048264	15,6774	3,16236544	5,3043379E-005	3,52707648	3,14196491	1	12	0,00966616627	1,378656E-005	0,000471289241	0,00134615437	0,00142626965	70,7048264
46,3802681	281,806244	924,059509	966,07489	-73,0401001	16,1162	3,16236877	5,98979605E-005	3,71353006	3,39754486	1	12	0,00965753291	9,996671E-006	0,000301945896	0,000990098342	0,0010351165	73,0401001
31,5869217	349,583527	1292,58215	1339,021	-74,8662033	16,5461	3,1623652	4,23555684E-005	3,8981154	3,63242126	1	12	0,00965327583	7,20920434E-006	0,000194973763	0,000720913871	0,000746814301	74,8662033
21,5220375	448,464905	1817,96826	1872,46606	-76,1426773	17,1990	3,16236377	1,11707759E-005	4,06771421	3,83437991	1	13	0,00966857187	5,16354976E-006	0,000127908817	0,000518511457	0,000534055056	76,1426773
14,6851501	596,193054	2551,13989	2619,87793	-76,8462296	17,6594	3,16236711	1,26258019E-005	4,24822474	4,02822685	1	13	0,009658725	3,68670794E-006	8,6861015E-005	0,000371682516	0,000381697173	76,8462296
9,9904108	818,00238	3584,58154	3676,7312	-77,1452103	18,1103	3,16236782	1,15851053E-005	4,4442482	4,22426844	1	13	0,00965585746	2,62620711E-006	6,05105124E-005	0,000265164068	0,000271980709	77,1452103
6,81718969	1190,32178	5036,1499	5174,90771	-76,7018738	18,4498	3,16236877	5,47760663E-008	4,63570833	4,39044142	1	13	0,00965483207	1,86570128E-006	4,44486977E-005	0,000188058693	0,000193240165	76,7018738
4,63925123	1653,53333	7006,79297	7199,2583	-76,7217026	18,9347	3,16236544	1,00096158E-005	4,89613008	4,63784266	1	13	0,00965088233	1,34053846E-006	3,1903437E-005	0,000135189752	0,000138903197	76,7217026
3,16039586	2419,54956	9784,33887	10079,0625	-76,1100922	19,9897	3,16236687	3,15558827E-006	5,14691687	4,85031414	1	14	0,00965996552	9,58419037E-007	2,38173998E-005	9,63143902E-005	9,92155765E-005	76,1100922
2,1522038	3558,40576	13449,8594	13912,6191	-75,1808929	20,9950	3,16237283	8,21464596E-007	5,49818039	5,13850355	1	14	0,0096551273	6,93983452E-007	1,83838965E-005	6,94864211E-005	7,18771917E-005	75,1808929
1,46630979	5231,21094	18556,8789	19280,127	-74,2567749	22,4564	3,1623826	-8,97201247E-009	5,84910583	5,41850615	1	14	0,00965540484	5,00795693E-007	1,40728662E-005	4,99212147E-005	5,18668785E-005	74,2567749
0,998529792	7620,14648	25299,8184	26422,4805	-73,2380295	24,5880	3,16237092	-6,46260645E-009	6,30001688	5,77602863	1	14	0,00965141412	3,65272825E-007	1,09148086E-005	3,62384999E-005	3,78465593E-005	73,2380295