Folder: thesis/Experimentelles/Rohdaten/Batteriemessungen/AlteZelle/Studenten_Batterietests/LLTO_LP30_Li CV/ECLab-Export (part 3)

File: LLTO_LP30_Li_05_GCPL_C01_loop0.mpt
EC-Lab ASCII FILE
Nb header lines : 3
mode	ox/red	error	control changes	Ns changes	counter inc.	Ns	time/s	control/V/mA	Ewe/V	dq/mA.h	<I>/mA	P/W	(Q-Qo)/mA.h	x	Capacity/mA.h
1	0	0	1	1	0	1	11641,06	-0,100000001	2,25884342	0	0	0	0	0	0
1	0	0	1	0	0	1	11701,06	-0,100000001	1,43967187	-0,00027773408686162698	-0,099984272480714637	0,000143944548	-0,0016650320814545379	6,212458561851159E-005	0,0016650320814545379
1	0	0	1	0	0	1	11761,06	-0,100000001	1,37694502	-0,00027773381343939242	-0,099984174048709005	0,000137672716	-0,0033314344550441133	0,00012430029867895877	0,0033314344550441133
1	0	0	1	0	0	1	11821,06	-0,100000001	1,3294369	-0,00027773311985118525	-0,099983924356951398	0,000132922316	-0,0049978335466984672	0,00018647588928599024	0,0049978335466984672
1	0	0	1	0	0	1	11881,06	-0,100000001	1,30579746	-0,00027773337560519578	-0,099984016428396314	0,000130558881	-0,0066642332874763776	0,00024865150411269437	0,0066642332874763776
1	0	0	1	0	0	1	11941,06	-0,100000001	1,28000021	-0,00027773372329688733	-0,099984141597406784	0,000127979729	-0,0083306345368461914	0,00031082717522699072	0,0083306345368461914
1	0	0	1	0	0	1	12001,06	-0,100000001	1,24158132	-0,0002777337031691439	-0,099984134351419059	0,000124138431	-0,0099970365133293402	0,00037300287347086323	0,0099970365133293402
1	0	0	1	0	0	1	12061,06	-0,100000001	1,20087099	-0,0002777336623536216	-0,099984119657830874	0,000120068027	-0,011663437951365238	0,0004351785516245449	0,011663437951365238
1	0	0	1	0	0	1	12121,06	-0,100000001	1,15762103	-0,00027773413990686339	-0,099984291576999987	0,000115743918	-0,01332984176428157	0,00049735431838820858	0,01332984176428157
1	0	0	1	0	0	1	12181,06	-0,100000001	1,10959733	-0,00027773333826081622	-0,099984002984419507	0,000110941983	-0,014996244476976454	0,00055953004410113075	0,014996244476976454
1	0	0	1	0	0	1	12241,06	-0,100000001	1,05510044	-0,0002777337127485209	-0,099984137799994829	0,000105493309	-0,016662644833485245	0,00062170568190158182	0,016662644833485245
1	0	0	1	0	0	1	12301,06	-0,100000001	0,99987793	-0,0002777330531146791	-0,099983900331808896	9,9971694E-005	-0,018329047651900973	0,00068388141155909082	0,018329047651900973
1	0	0	1	0	0	1	12361,06	-0,100000001	0,962967455	-0,00027773537358600234	-0,099984735701495386	9,62820486E-005	-0,01999545867132681	0,00074605744720731354	0,01999545867132681
1	0	0	1	0	0	1	12421,06	-0,100000001	0,94255501	-0,00027773505328098931	-0,099984620391689306	9,42410043E-005	-0,021661868263990061	0,00080823342962110566	0,021661868263990061
1	0	0	1	0	0	1	12481,06	-0,100000001	0,930582523	-0,0002777356420751247	-0,099984832357580595	9,30441383E-005	-0,023328281237421725	0,00087040953817591283	0,023328281237421725
1	0	0	1	0	0	1	12541,06	-0,100000001	0,920481324	-0,00027773583768556515	-0,099984902777340006	9,20342354E-005	-0,024994696853845859	0,00093258574534432256	0,024994696853845859
1	0	0	1	0	0	1	12601,06	-0,100000001	0,909253478	-0,00027773553584226301	-0,099984794113749926	9,09115188E-005	-0,026661111889388374	0,00099476193083925811	0,026661111889388374
1	0	0	1	0	0	1	12661,06	-0,100000001	0,896459937	-0,00027773478751091494	-0,099984524714461376	8,96321217E-005	-0,028327522649318358	0,0010569379568053416	0,028327522649318358
1	0	0	1	0	0	1	12721,06	-0,100000001	0,882864356	-0,00027773474540975357	-0,099984509558043098	8,82727618E-005	-0,029993934410998765	0,0011191140201480802	0,029993934410998765
1	0	0	1	0	0	1	12781,06	-0,100000001	0,868886888	-0,00027773528125592403	-0,09998470246266679	8,68753996E-005	-0,031660344857912051	0,0011812900344350896	0,031660344857912051
1	0	0	1	0	0	1	12841,06	-0,100000001	0,854432046	-0,00027773571394466694	-0,099984858230616115	8,54302634E-005	-0,033326756568151181	0,001243466095858485	0,033326756568151181
1	0	0	1	0	0	1	12901,06	-0,100000001	0,839786232	-0,00027773502655203146	-0,099984610769264346	8,39657005E-005	-0,034993167498535123	0,0013056421281844347	0,034993167498535123
1	0	0	1	0	0	1	12961,06	-0,100000001	0,824739456	-0,0002777356560561392	-0,099984837390745882	8,24614399E-005	-0,036659579233009741	0,0013678181905120888	0,036659579233009741
1	0	0	1	0	0	1	13021,06	-0,100000001	0,809387147	-0,00027773592045158147	-0,099984932573106253	8,09265184E-005	-0,038325993251275232	0,001429994338051051	0,038325993251275232
1	1	0	0	0	0	2	13067,70	0,100000001	0,83353579	0,00027780758996018106	0,10001073359651448	8,33625236E-005	-0,039065548801261472	0,0014575881499640496	0,0002778130784208576
1	1	0	0	0	0	2	13127,70	0,100000001	0,86185354	0,00027780906249996691	0,10001126371084381	8,61950612E-005	-0,037398697361588435	0,0013953956816442526	0,0019446645180938973
1	1	0	0	0	0	2	13187,70	0,100000001	0,884614646	0,00027780843226611613	0,10001103682665477	8,84712281E-005	-0,035731846010266861	0,0013332032166209677	0,0036115158694154682
1	1	0	0	0	0	2	13247,70	0,100000001	0,905695438	0,0002778087187666032	0,10001113996683138	9,05796333E-005	-0,034064994709319078	0,0012710107534771965	0,0052783671703632506
1	1	0	0	0	0	2	13307,70	0,100000001	0,925554156	0,00027780876081933581	0,1000111551058153	9,25657368E-005	-0,032398141439870784	0,0012088182168860246	0,0069452204398115469
1	1	0	0	0	0	2	13367,70	0,100000001	0,94441992	0,00027780856220548355	0,10001108360482762	9,44524581E-005	-0,030731289626323469	0,0011466257346164758	0,0086120722533588595
1	1	0	0	0	0	2	13427,70	0,100000001	0,962273657	0,00027780891737714406	0,10001121146662694	9,62381528E-005	-0,029064437856120326	0,0010844332539641563	0,01027892402356201
1	1	0	0	0	0	2	13487,70	0,100000001	0,981597722	0,00027780879555021728	0,10001116760893277	9,81707344E-005	-0,027397585962497894	0,001022240768706897	0,011945775917184438
1	1	0	0	0	0	2	13547,70	0,100000001	1,02923954	0,00027780862560247386	0,1000111064277444	0,000102935388	-0,025730734098818522	0,0009600482845668535	0,013612627780863811
1	1	0	0	0	0	2	13607,70	0,100000001	1,0882237	0,00027780841816961763	0,10001103175191526	0,000108834378	-0,024063884211431728	0,00089785587416494336	0,015279477668250602
1	1	0	0	0	0	2	13667,70	0,100000001	1,13832867	0,00027780836641291779	0,10001101311950307	0,000113845403	-0,022397034658084262	0,00083566347622648986	0,016946327221598064
1	1	0	0	0	0	2	13727,70	0,100000001	1,18253338	0,00027780829366586272	0,10001098693056296	0,000118266333	-0,020730185032297706	0,00077347107558523622	0,018613176847384624
1	1	0	0	0	0	2	13787,70	0,100000001	1,22566879	0,00027780790099129082	0,10001084556771536	0,000122580168	-0,019063336749377296	0,00071127872504812416	0,02028002513030503
1	1	0	0	0	0	2	13847,70	0,100000001	1,26951075	0,00027780789101041024	0,1000108419745983	0,000126964835	-0,017396489800321094	0,00064908642427927898	0,021946872079361232
1	1	0	0	0	0	2	13907,70	0,100000001	1,31444108	0,00027780780893647008	0,10001081242797949	0,000131458321	-0,015729641473799478	0,0005868940721153472	0,023613720405882848
1	1	0	0	0	0	2	13967,70	0,100000001	1,36032605	0,00027780837524599498	0,10001101629941091	0,000136047587	-0,01406279283058721	0,0005247017081352615	0,025280569049095117
1	1	0	0	0	0	2	14027,70	0,100000001	1,36572993	0,00027780866390342512	0,10001112021608702	0,000136588176	-0,012395941080721664	0,00046250922824176506	0,026947420798960662
1	1	0	0	0	0	2	14087,70	0,100000001	1,38241887	0,0002778081705851687	0,10001094262151256	0,000138257019	-0,010729089864498573	0,00040031676825918605	0,028614272015183754
1	1	0	0	0	0	2	14147,70	0,100000001	1,43061447	0,00027780798112518253	0,10001087441591674	0,000143077006	-0,0090622375465030784	0,00033812426716799731	0,030281124333179245
1	1	0	0	0	0	2	14207,70	0,100000001	1,57712972	0,00027780801495164637	0,10001088659344384	0,000157730145	-0,0073953861758451802	0,000275931801423248	0,031947975703837146
1	1	0	0	0	0	2	14267,70	0,100000001	2,66271973	0,00027780807688252797	0,10001090888856149	0,000266301009	-0,0057285369323872339	0,00021373941504718896	0,033614824947295085
1	1	0	0	0	0	2	14327,70	0,100000001	3,20608449	0,00027780835387607411	0,10001100860623933	0,00032064374	-0,004061686758595984	0,00015154699395914349	0,03528167512108633
1	1	0	0	0	0	2	14387,70	0,100000001	3,45248508	0,00027780831328324147	0,10001099399281938	0,000345286477	-0,002394836935964257	8,9354585973331994E-005	0,036948524943718061
1	1	0	0	0	0	2	14447,70	0,100000001	3,58334255	0,0002778086085692048	0,10001110029576746	0,000358374033	-0,00072798490677478963	2,7162095657884442E-005	0,038615376972907533
1	1	0	0	0	0	2	14507,70	0,100000001	3,70045161	0,00027780856346587341	0,10001108405856797	0,000370086171	0,0009388664650031785	-3,5030370128656179E-005	0,040282228344685504
1	1	0	0	0	0	2	14567,70	0,100000001	3,83409691	0,00027780880364982621	0,10001117052479203	0,000383452512	0,0026057190259095386	-9,7222880283175898E-005	0,041949080905591866
1	1	0	0	0	0	2	14627,70	0,100000001	3,95796537	0,0002778091590160297	0,10001129845662683	0,000395841256	0,004272572120291129	-0,00015941541034237373	0,043615933999973446
1	1	0	0	0	0	2	14687,70	0,100000001	4,07814884	0,00027780882323823046	0,10001117757661763	0,000407860469	0,0059394257373760666	-0,00022160795990433622	0,045282787617058387
1	1	0	0	0	0	2	14747,70	0,100000001	4,19877863	0,00027780857693072816	0,10001108890591576	0,000419924414	0,0076062782515151322	-0,00028380046831390534	0,046949640131197459
1	1	0	0	0	0	2	14748,36	0,100000001	4,19992447	1,8557562223739094E-005	0,10001081559000368	0,000420037861	0,007624835813738871	-0,00028449287591138083	0,046968197693421197

File: LLTO_LP30_Li_05_GCPL_C01_loop7.mpt
EC-Lab ASCII FILE
Nb header lines : 3
mode	ox/red	error	control changes	Ns changes	counter inc.	Ns	time/s	control/V/mA	Ewe/V	dq/mA.h	<I>/mA	P/W	(Q-Qo)/mA.h	x	Capacity/mA.h
1	0	0	1	1	0	1	33330,82	-0,100000001	4,18837214	0	0	0	0	0	0
1	0	0	1	0	0	1	33390,82	-0,100000001	2,25518441	-0,00027773832625150678	-0,099985797264304384	0,000225486408	-0,0016650540242592086	6,2125404334056269E-005	0,0016650540242592086
1	0	0	1	0	0	1	33450,82	-0,100000001	1,4860152	-0,00027773838984304003	-0,099985820157256307	0,000148580453	-0,0033314842252043814	0,00012430215567055507	0,0033314842252043814
1	0	0	1	0	0	1	33510,82	-0,100000001	1,40514827	-0,00027773765040023459	-0,099985553957846848	0,000140494521	-0,0049979119782091443	0,00018647881567110592	0,0049979119782091443
1	0	0	1	0	0	1	33570,82	-0,100000001	1,35550153	-0,00027773791516820592	-0,099985649274316352	0,000135530703	-0,0066643393006908006	0,00024865545960826083	0,0066643393006908006
1	0	0	1	0	0	1	33630,82	-0,100000001	1,31775081	-0,00027773823524349264	-0,099985764501419341	0,000131756329	-0,0083307689687327821	0,00031083219106142502	0,0083307689687327821
1	0	0	1	0	0	1	33690,82	-0,100000001	1,30008805	-0,00027773811072732013	-0,099985719675597338	0,000129990236	-0,0099971989778201229	0,00037300893523945018	0,0099971989778201229
1	0	0	1	0	0	1	33750,82	-0,100000001	1,2652781	-0,000277738099001348	-0,099985715454247373	0,000126509738	-0,01166362595996712	0,00043518556647826138	0,01166362595996712
1	0	0	1	0	0	1	33810,82	-0,100000001	1,22533154	-0,00027773798287784061	-0,099985673649784781	0,000122515601	-0,013330054664323274	0,00049736226197501165	0,013330054664323274
1	0	0	1	0	0	1	33870,82	-0,100000001	1,18341815	-0,00027773800092935565	-0,099985680148330189	0,000118324868	-0,014996484152543837	0,00055953898671879699	0,014996484152543837
1	0	0	1	0	0	1	33930,82	-0,100000001	1,13724673	-0,00027773771118124326	-0,09998557583900992	0,000113708265	-0,016662913058982496	0,00062171568975551731	0,016662913058982496
1	0	0	1	0	0	1	33990,82	-0,100000001	1,08456385	-0,00027773788452438182	-0,099985638242539699	0,000108440807	-0,01832933816199911	0,00068389225088144742	0,01832933816199911
1	0	0	1	0	0	1	34050,82	-0,100000001	1,02514052	-0,00027773805673296253	-0,099985700237628634	0,000102499391	-0,019995765845234154	0,00074606890827879616	0,019995765845234154
1	0	0	1	0	0	1	34110,82	-0,100000001	0,975321889	-0,00027774007491932976	-0,099986426784719475	9,75189541E-005	-0,021662200589021005	0,00080824582911482598	0,021662200589021005
1	0	0	1	0	0	1	34170,82	-0,100000001	0,950135708	-0,00027774000213957498	-0,099986400584007821	9,50006506E-005	-0,023328640730933555	0,00087042295136218342	0,023328640730933555
1	0	0	1	0	0	1	34230,82	-0,100000001	0,936998367	-0,00027774006327241661	-0,099986422591830758	9,36871147E-005	-0,0249950798806436	0,00093260003658913139	0,0249950798806436
1	0	0	1	0	0	1	34290,82	-0,100000001	0,927030861	-0,00027773984900034138	-0,099986345453883814	9,26904249E-005	-0,026661517808270918	0,00099477707621852966	0,026661517808270918
1	0	0	1	0	0	1	34350,82	-0,100000001	0,915497541	-0,0002777398120690551	-0,099986332158620774	9,15372439E-005	-0,028327956662055482	0,0010569541504041	0,028327956662055482
1	0	0	1	0	0	1	34410,82	-0,100000001	0,902570307	-0,00027773972046416666	-0,099986299180861005	9,02446627E-005	-0,029994394795504672	0,001119131197712989	0,029994394795504672
1	0	0	1	0	0	1	34470,82	-0,100000001	0,888802826	-0,00027773983967180058	-0,099986342095609139	8,88681461E-005	-0,031660833879979085	0,0011813082805059077	0,031660833879979085
1	0	0	1	0	0	1	34530,82	-0,100000001	0,874443471	-0,00027774003138310381	-0,09998641111167817	8,74324614E-005	-0,033327273125977107	0,0012434853693254899	0,033327273125977107
1	0	0	1	0	0	1	34590,82	-0,100000001	0,859644949	-0,0002777399565676848	-0,099986384178127373	8,59527936E-005	-0,03499371185386839	0,0013056624388138125	0,03499371185386839
1	0	0	1	0	0	1	34650,82	-0,100000001	0,844483554	-0,00027773938297687302	-0,09998617768543552	8,44366805E-005	-0,036660150796220902	0,0013678395163039722	0,036660150796220902
1	0	0	1	0	0	1	34710,82	-0,100000001	0,828997612	-0,00027774019113845296	-0,099986468623603763	8,28885459E-005	-0,038326591821760301	0,0014300166715206352	0,038326591821760301
1	0	0	1	0	0	1	34770,82	-0,100000001	0,81328249	-0,00027774051643411322	-0,099986585730041229	8,13173392E-005	-0,039993032979309914	0,0014921938316627773	0,039993032979309914
1	1	0	0	1	0	2	34820,49	0,100000001	0,811722279	5,4884246653980678E-009	0,032930549622955008	2,67304604E-005	-0,041372672596357286	0,0015436700407200083	5,4884246653980678E-009
1	1	0	0	0	0	2	34880,49	0,100000001	0,856793404	0,00027780689369059274	0,10001048154232933	8,56883198E-005	-0,039705831889501402	0,0014814779728560493	0,0016668461952805517
1	1	0	0	0	0	2	34940,49	0,100000001	0,879802763	0,00027780731113006669	0,1000106318205397	8,79896324E-005	-0,038038989073460243	0,0014192858262955523	0,0033336890113217133
1	1	0	0	0	0	2	35000,49	0,100000001	0,901112676	0,00027780684498324995	0,10001046400768597	9,01206949E-005	-0,036372146430341254	0,0013570936861870144	0,0050005316544406944
1	1	0	0	0	0	2	35060,49	0,100000001	0,921009541	0,00027780663367071085	0,10001038793517205	9,21105238E-005	-0,034705307965815827	0,0012949017019874198	0,0066673701189661184
1	1	0	0	0	0	2	35120,49	0,100000001	0,939989865	0,00027780637508589357	0,100010294844638	9,40086611E-005	-0,033038469716143629	0,0012327097258042885	0,0083342083686383219
1	1	0	0	0	0	2	35180,49	0,100000001	0,958072782	0,00027780650187283757	0,10001034048793776	9,58171877E-005	-0,03137163056443088	0,001170517715964811	0,010001047520351077
1	1	0	0	0	0	2	35240,49	0,100000001	0,975029051	0,00027780707620125677	0,10001054724616827	9,75131916E-005	-0,029704788615067744	0,0011083256017412366	0,011667889469714211
1	1	0	0	0	0	2	35300,49	0,100000001	1,00542819	0,00027780671235298118	0,10001041626078931	0,00010055329	-0,028037947066763155	0,0010461335024816955	0,0133347310180188
1	1	0	0	0	0	2	35360,49	0,100000001	1,06683743	0,00027780695186100074	0,10001050248367619	0,000106694948	-0,026371105051249213	0,00098394138578994522	0,015001573033532742
1	1	0	0	0	0	2	35420,49	0,100000001	1,12089503	0,00027780715021491046	0,10001057389108355	0,000112101356	-0,02470426413040768	0,0009217493099418944	0,016668413954374275
1	1	0	0	0	0	2	35480,49	0,100000001	1,1667037	0,00027780651356900733	0,10001034469855885	0,000116682437	-0,02303742463508905	0,00085955728728201971	0,018335253449692906
1	1	0	0	0	0	2	35540,49	0,100000001	1,2095145	0,00027780653956615264	0,10001035405753114	0,000120963974	-0,021370585014353965	0,00079736525994268851	0,02000209307042799
1	1	0	0	0	0	2	35600,49	0,100000001	1,25287902	0,00027780574726892842	0,10001006883053098	0,000125300518	-0,019703748749991197	0,00073517335783412122	0,021668929334790758
1	1	0	0	0	0	2	35660,49	0,100000001	1,2973702	0,00027780593426980909	0,10001013615084787	0,000129750173	-0,018036913445766128	0,00067298149154958234	0,023335764639015827
1	1	0	0	0	0	2	35720,49	0,100000001	1,34308338	0,00027780575189284157	0,10001007049513968	0,000134321861	-0,016370078111454371	0,00061078962414246861	0,025002599973327584
1	1	0	0	0	0	2	35780,49	0,100000001	1,37239408	0,00027780643591533107	0,10001031674323544	0,000137253563	-0,014703241432307024	0,00054859770655773088	0,026669436652474934
1	1	0	0	0	0	2	35840,49	0,100000001	1,37531567	0,00027780606074134512	0,10001018168060075	0,000137545576	-0,013036403719631275	0,00048640575041065901	0,028336274365150682
1	1	0	0	0	0	2	35900,49	0,100000001	1,4085598	0,00027780655574219094	0,10001035988090493	0,000140870572	-0,011369564659729128	0,00042421374399675872	0,030003113425052832
1	1	0	0	0	0	2	35960,49	0,100000001	1,4744755	0,00027780666845581594	0,10001040045780986	0,000147462881	-0,009702725776540265	0,00036202174417626874	0,031669952308241696
1	1	0	0	0	0	2	36020,49	0,100000001	2,28878427	0,00027780699778555168	0,1000105190165145	0,0002289025	-0,0080358853294352115	0,00029982968600396294	0,033336792755346758
1	1	0	0	0	0	2	36080,49	0,100000001	3,05995107	0,00027780727155754963	0,10001061757443357	0,000306027592	-0,006369043203740841	0,00023763756520123283	0,035003634881041133
1	1	0	0	0	0	2	36140,49	0,100000001	3,46228075	0,00027780649298512275	0,10001033728836042	0,000346263871	-0,0047022038037109965	0,00017544554609671088	0,036670474281070982
1	1	0	0	0	0	2	36200,49	0,100000001	3,70469069	0,0002778069046905471	0,10001048550231291	0,000370507914	-0,0030353631517642323	0,00011325348028148547	0,038337314933017741
1	1	0	0	0	0	2	36260,49	0,100000001	3,9147346	0,00027780747429943747	0,10001069056151307	0,000391515321	-0,0013685193681140987	5,1061297618196691E-005	0,040004158716667878
1	1	0	0	0	0	2	36320,49	0,100000001	4,08660793	0,00027780684120456381	0,10001046264735896	0,000408703549	0,00029832364127169914	-1,1130856156248686E-005	0,041671001726053677
1	1	0	0	0	0	2	36367,23	0,100000001	4,19998169	0,00018707534220814704	0,10001057776837494	0,000420042605	0,0015966273978224816	-5,9572314901124262E-005	0,042969305482604454