Folder: thesis/Experimentelles/Rohdaten/Batteriemessungen/AlteZelle/Studenten_Batterietests/LiCoO2 vs Li 300µm GCPL/ZView-Export (part 5)

File: LiCoO2 vs Li 300µm GCPL_04_OCV_C04.txt
EC-Lab ASCII FILE
Nb header lines : 48

Open Circuit Voltage

Run on channel : 4 (SN 5435)
Grouped channel(s) : 4
User :
CE vs. WE compliance from -10 V to 10 V
Electrode connection : standard
Ewe ctrl range : min = 0,00 V, max = 5,00 V
Acquisition started on : 01.23.2015 15:04:13
Saved on :
	File : LiCoO2 vs Li 300µm GCPL_04_OCV_C04.mpr
	Directory : C:\Hupfer\Studenten Batterietests\LiCoO2 vs Li 300µm GCPL\
	Host : 192.168.0.2
Device : VMP3 (SN 0324)
Address : 192.168.0.1
EC-Lab for windows v10.33 (software)
Internet server v10.33 (firmware)
Command interpretor v10.32 (firmware)
Electrode material : LiCoO2 vs Li
Initial state : charged
Electrolyte : LP30
Comments : 300µm
Mass of active material : 0,001 mg
 at x = 0,000
Molecular weight of active material (at x = 0) : 0,001 g/mol
Atomic weight of intercalated ion : 0,001 g/mol
Acquisition started at : xo = 0,000
Number of e- transfered per intercalated ion : 1
for DX = 1, DQ = 26,801 mA.h
Battery capacity : 0,000 A.h
Reference electrode : Li+/Li (-3,020 V)
Electrode surface area : 0,001 cm²
Characteristic mass : 0,001 g
Create one data file per loop
tR (h:m:s)          3:00:0,0000
dER/dt (mV/h)       0,0
dER (mV)            0,00
dtR (s)             60,0000
E range min (V)     0,000
E range max (V)     5,000

Number of loops : 1
Loop 0 from point number 0 to 180

mode	error	time/s	Ewe/V
3	0	109850,7135	4,18020773
3	0	109910,7137	4,09651709
3	0	109970,7139	4,08291531
3	0	110030,7141	4,0769062
3	0	110090,7143	4,07038164
3	0	110150,7145	4,06320906
3	0	110210,7146	4,05830622
3	0	110270,7148	4,05330801
3	0	110330,7150	4,04817629
3	0	110390,7152	4,04653549
3	0	110450,7154	4,04384565
3	0	110510,7156	4,03932476
3	0	110570,7158	4,03583336
3	0	110630,7159	4,03425026
3	0	110690,7161	4,03375387
3	0	110750,7163	4,03335333
3	0	110810,7165	4,04067898
3	0	110870,7167	4,02778292
3	0	110930,7169	4,02482605
3	0	110990,7171	4,0229373
3	0	111050,7172	4,02104902
3	0	111110,7174	4,01839733
3	0	111170,7176	4,0162034
3	0	111230,7178	4,01524925
3	0	111290,7180	4,01391411
3	0	111350,7182	4,0114913
3	0	111410,7184	4,00925922
3	0	111470,7185	4,00761843
3	0	111530,7187	4,00565386
3	0	111590,7189	4,00567293
3	0	111650,7191	4,00685549
3	0	111710,7193	4,00527239
3	0	111770,7195	4,00513887
3	0	111830,7197	4,01091909
3	0	111890,7198	4,00479507
3	0	111950,7200	4,00073195
3	0	112010,7202	4,00075102
3	0	112070,7204	3,99890041
3	0	112130,7206	3,99844265
3	0	112190,7208	3,99827075
3	0	112250,7210	3,99687815
3	0	112310,7211	3,9965539
3	0	112370,7213	3,99571443
3	0	112430,7215	3,99495149
3	0	112490,7217	3,99415016
3	0	112550,7219	3,99281478
3	0	112610,7221	3,99235702
3	0	112670,7223	3,99188018
3	0	112730,7224	3,99098349
3	0	112790,7226	3,99054456
3	0	112850,7228	3,99033475
3	0	112910,7230	3,9919374
3	0	112970,7232	3,99136496
3	0	113030,7234	3,99006772
3	0	113090,7236	3,98856068
3	0	113150,7237	3,9867866
3	0	113210,7239	3,98619509
3	0	113270,7241	3,98627138
3	0	113330,7243	3,98682475
3	0	113390,7245	3,98690104
3	0	113450,7247	3,98699641
3	0	113510,7249	3,99025846
3	0	113570,7250	3,99010587
3	0	113630,7252	3,9922235
3	0	113690,7254	3,99233794
3	0	113750,7256	3,99252868
3	0	113810,7258	3,9914794
3	0	113870,7260	3,99107885
3	0	113930,7262	3,99105978
3	0	113990,7263	3,99453187
3	0	114050,7265	3,99603891
3	0	114110,7267	3,99500871
3	0	114170,7269	3,99468446
3	0	114230,7271	3,99437904
3	0	114290,7273	3,99304366
3	0	114350,7275	3,99264312
3	0	114410,7276	3,9914031
3	0	114470,7278	3,99062109
3	0	114530,7280	3,98884678
3	0	114590,7282	3,98816013
3	0	114650,7284	3,98741603
3	0	114710,7286	3,9864049
3	0	114770,7288	3,98709178
3	0	114830,7290	3,98766398
3	0	114890,7291	3,9875114
3	0	114950,7293	3,9863286
3	0	115010,7295	3,9857564
3	0	115070,7297	3,98566103
3	0	115130,7299	3,98602343
3	0	115190,7301	3,98596621
3	0	115250,7303	3,98552752
3	0	115310,7304	3,98506951
3	0	115370,7306	3,98718715
3	0	115430,7308	3,98768306
3	0	115490,7310	3,9900105
3	0	115550,7312	3,99012494
3	0	115610,7314	3,98985791
3	0	115670,7316	3,9897244
3	0	115730,7317	3,98978162
3	0	115790,7319	3,98930478
3	0	115850,7321	3,98915195
3	0	115910,7323	3,98795033
3	0	115970,7325	3,98302841
3	0	116030,7327	3,98453546
3	0	116090,7329	3,98316193
3	0	116150,7330	3,98340988
3	0	116210,7332	3,98295212
3	0	116270,7334	3,98384857
3	0	116330,7336	3,983181
3	0	116390,7338	3,98352432
3	0	116450,7340	3,98222709
3	0	116510,7342	3,98138785
3	0	116570,7343	3,98220801
3	0	116630,7345	3,98407769
3	0	116690,7347	3,98424935
3	0	116750,7349	3,98152137
3	0	116810,7351	3,98094893
3	0	116870,7353	3,98102522
3	0	116930,7355	3,98108244
3	0	116990,7356	3,97968984
3	0	117050,7358	3,97948003
3	0	117110,7360	3,98016691
3	0	117170,7362	3,98030043
3	0	117230,7364	3,98035765
3	0	117290,7366	3,97997594
3	0	117350,7368	3,98016691
3	0	117410,7369	3,97898412
3	0	117470,7371	3,97959447
3	0	117530,7373	3,98131132
3	0	117590,7375	3,98165488
3	0	117650,7377	3,98052931
3	0	117710,7379	3,97610331
3	0	117770,7381	3,97816372
3	0	117830,7382	3,97778225
3	0	117890,7384	3,97999501
3	0	117950,7386	3,97902226
3	0	118010,7388	3,97974706
3	0	118070,7390	3,9795754
3	0	118130,7392	3,98033857
3	0	118190,7394	3,9803195
3	0	118250,7395	3,97965169
3	0	118310,7397	3,98024321
3	0	118370,7399	3,97993779
3	0	118430,7401	3,97820187
3	0	118490,7403	3,97844982
3	0	118550,7405	3,97824001
3	0	118610,7407	3,97806835
3	0	118670,7408	3,9781065
3	0	118730,7410	3,97789669
3	0	118790,7412	3,97764874
3	0	118850,7414	3,9783926
3	0	118910,7416	3,97824001
3	0	118970,7418	3,97865963
3	0	119030,7420	3,97886968
3	0	119090,7421	3,97841167
3	0	119150,7423	3,97932744
3	0	119210,7425	3,97997594
3	0	119270,7427	3,97858334
3	0	119330,7429	3,97886968
3	0	119390,7431	3,97770596
3	0	119450,7433	3,97761059
3	0	119510,7434	3,97772503
3	0	119570,7436	3,97743869
3	0	119630,7438	3,97667575
3	0	119690,7440	3,97682834
3	0	119750,7442	3,97658038
3	0	119810,7444	3,97761059
3	0	119870,7446	3,97780132
3	0	119930,7447	3,97709537
3	0	119990,7449	3,97574091
3	0	120050,7451	3,97682834
3	0	120110,7453	3,97595072
3	0	120170,7455	3,97562647
3	0	120230,7457	3,97541666
3	0	120290,7459	3,9756074
3	0	120350,7460	3,97486353
3	0	120410,7462	3,97535944
3	0	120470,7464	3,97486353
3	0	120530,7466	3,97404313
3	0	120590,7468	3,97392869
3	0	120650,7110	3,97410035