Folder: thesis/Experimentelles/Rohdaten/Batteriemessungen/AlteZelle/Studenten_Batterietests/LiCoO2 vs Li 300µm GCPL/ZView-Export (part 3)

File: LiCoO2 vs Li 300µm GCPL_02_GCPL_C04_loop4.txt
EC-Lab ASCII FILE
Nb header lines : 3
mode	ox/red	error	control changes	Ns changes	counter inc.	Ns	time/s	control/V/mA	Ewe/V	dq/mA.h	<I>/mA	P/W	(Q-Qo)/mA.h	x	Capacity/mA.h
1	0	0	1	1	0	1	51118,48	-0,300000012	4,18646526	0	0	0	0	0	0
1	0	0	1	0	0	1	51328,48	-0,300000012	4,10783005	-0,00083289433196518157	-0,29984195894896621	0,00123169983	-0,017486733390398598	0,0006524535339588681	0,017486733390398598
1	0	0	1	0	0	1	51538,48	-0,300000012	4,07642937	-0,00083292275316847693	-0,29985219058213344	0,0012223263	-0,034977649185310906	0,0013050631190534451	0,034977649185310906
1	0	0	1	0	0	1	51748,48	-0,300000012	4,05187702	-0,0008329169652776585	-0,29985010694144269	0,0012149557	-0,052468679927365082	0,0019576769929804339	0,052468679927365082
1	0	0	1	0	0	1	51958,48	-0,300000012	4,04067898	-0,00083292089292572595	-0,29985152089474438	0,00121160375	-0,069959869448916224	0,0026102967911839347	0,069959869448916224
1	0	0	1	0	0	1	52168,48	-0,300000012	4,01385689	-0,0008329052144421472	-0,29984587664066656	0,00120353838	-0,0874511452967072	0,003262919810335511	0,0874511452967072
1	0	0	1	0	0	1	52378,48	-0,300000012	3,99353981	-0,00083290034869147661	-0,29984412497042842	0,0011974395	-0,10494213317141541	0,0039155320848241862	0,10494213317141541
1	0	0	1	0	0	1	52588,48	-0,300000012	3,97562647	-0,00083289264388879142	-0,29984135124146688	0,00119205716	-0,12243299371077064	0,0045681396082596371	0,12243299371077064
1	0	0	1	0	0	1	52798,48	-0,300000012	3,96038389	-0,00083290450719164467	-0,29984562203048608	0,0011875038	-0,13992388406711931	0,0052207482442072019	0,13992388406711931
1	0	0	1	0	0	1	53008,48	-0,300000012	3,94397783	-0,00083290410039987827	-0,29984547558545043	0,00118258386	-0,15741495055428422	0,0058733634518323328	0,15741495055428422
1	0	0	1	0	0	1	53218,48	-0,300000012	3,92843008	-0,00083291255149576397	-0,29984851797996365	0,00117793388	-0,17490603827979613	0,0065259794518887424	0,17490603827979613
1	0	0	1	0	0	1	53428,48	-0,300000012	3,91528606	-0,00083291604561441472	-0,29984977586267558	0,00117399765	-0,1923970985204423	0,0071785944264478592	0,1923970985204423
1	0	0	1	0	0	1	53638,48	-0,300000012	3,90103555	-0,00083291210109161011	-0,29984835583446854	0,00116971915	-0,20988823030337306	0,0078312120703458048	0,20988823030337306
1	0	0	1	0	0	1	53848,48	-0,300000012	3,88915062	-0,00083290867927173773	-0,2998471239793168	0,00116615067	-0,22737937732404912	0,0084838302827845146	0,22737937732404912
1	0	0	1	0	0	1	54058,48	-0,300000012	3,87862015	-0,00083290446498327782	-0,29984560683547405	0,0011629872	-0,24487051391867248	0,0091364481062131789	0,24487051391867248
1	0	0	1	0	0	1	54268,48	-0,300000012	3,86902452	-0,00083290550091697114	-0,29984597977160294	0,00116011139	-0,26236155429641517	0,0097890623396606618	0,26236155429641517
1	0	0	1	0	0	1	54478,48	-0,300000012	3,86097407	-0,00083290484915839296	-0,29984574513851526	0,00115769659	-0,27985255895560102	0,010441675240400763	0,27985255895560102
1	0	0	1	0	0	1	54688,48	-0,300000012	3,85282826	-0,0008328965112037129	-0,29984274347483603	0,00115524256	-0,2973435610858793	0,011094288046783923	0,2973435610858793
1	0	0	1	0	0	1	54898,48	-0,300000012	3,84311795	-0,00083291459300286246	-0,2998492529225177	0,00115235604	-0,31483457237210656	0,01174690119478785	0,31483457237210656
1	0	0	1	0	0	1	55108,48	-0,300000012	3,83201528	-0,00083291036998728909	-0,29984773263691418	0,00114902109	-0,33232558558787014	0,012399514414785373	0,33232558558787014
1	0	0	1	0	0	1	55318,48	-0,300000012	3,81860399	-0,00083290052865280038	-0,29984418975650483	0,00114498625	-0,34981654381631923	0,013052125583132259	0,34981654381631923
1	0	0	1	0	0	1	55528,48	-0,300000012	3,80301833	-0,00083291187529100314	-0,29984827454625018	0,00114032847	-0,36730757955126899	0,013704739643350896	0,36730757955126899
1	0	0	1	0	0	1	55738,48	-0,300000012	3,78235793	-0,00083290473406016832	-0,29984570370315443	0,00113412377	-0,38479867418463789	0,014357355901148739	0,38479867418463789
1	0	0	1	0	0	1	55948,48	-0,300000012	3,75418115	-0,00083292633669906202	-0,29985348065314163	0,00112570426	-0,40228977484552979	0,015009972383841571	0,40228977484552979
1	0	0	1	0	0	1	56158,48	-0,300000012	3,71726727	-0,00083290346993009254	-0,299845248616328	0,00111460488	-0,41978091234133069	0,015662590240894381	0,41978091234133069
1	0	0	1	0	0	1	56368,48	-0,300000012	3,66665626	-0,00083290282642179059	-0,29984501695333978	0,00109942863	-0,4372719542900464	0,016315204532956976	0,4372719542900464
1	0	0	1	0	0	1	56578,48	-0,300000012	3,5902338	-0,00083290770493116646	-0,29984677321671174	0,00107652007	-0,45476300456375789	0,016967819135636362	0,45476300456375789
1	0	0	1	0	0	1	56788,48	-0,300000012	3,4569242	-0,00083290021309422131	-0,29984407615541651	0,00103653828	-0,4722540722914992	0,017620434389549062	0,4722540722914992
1	0	0	1	0	0	1	56998,48	-0,300000012	3,12139869	-0,00083291569615072678	-0,2998496500557481	0,000935950316	-0,48974510345255584	0,0182730482791096	0,48974510345255584
1	0	0	1	0	0	1	57208,48	-0,300000012	2,34544349	-0,00083292562070488922	-0,29985322289524	0,000703288766	-0,50723618173791718	0,018925663926941299	0,50723618173791718
1	1	0	0	0	0	2	57408,32	0,300000012	3,9077363	0,00083383338827722611	0,30018001922067251	0,00117302442	-0,50387970482827482	0,018800429260611341	0,010005970963330733
1	1	0	0	0	0	2	57618,32	0,300000012	3,92994189	0,00083382992319265997	0,30017877179023104	0,00117968512	-0,48636922879705088	0,018147089856800963	0,027516446994554669
1	1	0	0	0	0	2	57828,32	0,300000012	3,94075871	0,00083383368674251763	0,30018012666817728	0,00118293741	-0,46885888836415526	0,017493755512346522	0,045026787427450208
1	1	0	0	0	0	2	58038,32	0,300000012	3,94884729	0,00083384867094126016	0,3001855209797145	0,00118538679	-0,4513482723272832	0,016840410884737168	0,062537403464322266
1	1	0	0	0	0	2	58248,32	0,300000012	3,95476103	0,00083382293531960922	0,30017625615593747	0,00118712534	-0,43383775472134925	0,016187069929718461	0,080047921070256128
1	1	0	0	0	0	2	58458,32	0,300000012	3,96294498	0,00083383592619333005	0,30018093287046829	0,00118960056	-0,41632716978660627	0,01553372646257136	0,097558506004999078
1	1	0	0	0	0	2	58668,32	0,300000012	3,96641707	0,00083384350345863232	0,30018366068597203	0,00119065365	-0,39881650333760256	0,014880379954017597	0,11506917245400285
1	1	0	0	0	0	2	58878,32	0,300000012	3,97233105	0,0008338402664744192	0,30018249537165741	0,00119242421	-0,3813058429527488	0,014227033671725422	0,13257983283885653
1	1	0	0	0	0	2	59088,32	0,300000012	3,97807312	0,00083384501979417267	0,3001842065667655	0,00119415473	-0,36379510504315379	0,013573684496880914	0,15009057074845168
1	1	0	0	0	0	2	59298,32	0,300000012	3,98619986	0,00083385303567846618	0,30018709228510579	0,00119660574	-0,34628434955822995	0,012920334666277261	0,16760132623337536
1	1	0	0	0	0	2	59508,32	0,300000012	3,99207568	0,00083384627140396173	0,3001846571462887	0,00119835988	-0,32877368487555187	0,012266988223627482	0,18511199091605338
1	1	0	0	0	0	2	59718,32	0,300000012	3,99949646	0,00083384099800388019	0,30018275872226291	0,00120057992	-0,31126300467220678	0,011613641201880747	0,20262267111939846
1	1	0	0	0	0	2	59928,32	0,300000012	4,00577307	0,00083384461883703859	0,3001840622221975	0,00120246923	-0,29375234598957562	0,010960294983100784	0,22013332980202963
1	1	0	0	0	0	2	60138,32	0,300000012	4,01298428	0,00083383653186592781	0,30018115091260307	0,00120462221	-0,27624162878608438	0,01030694658082885	0,23764404700552086
1	1	0	0	0	0	2	60348,32	0,300000012	4,02109194	0,00083383653874529728	0,30018115338917606	0,00120705599	-0,25873111330644848	0,0096536057051451789	0,25515456248515674
1	1	0	0	0	0	2	60558,32	0,300000012	4,03110695	0,00083382844324575526	0,30017823900934637	0,00121005054	-0,24122052241370813	0,0090002620156971891	0,27266515337789715
1	1	0	0	0	0	2	60768,32	0,300000012	4,04140854	0,00083384302972588275	0,30018349014218246	0,00121316407	-0,22370973088599482	0,0083469108402885978	0,29017594490561056
1	1	0	0	0	0	2	60978,32	0,300000012	4,04970741	0,00083384828822811443	0,3001853832029824	0,00121566292	-0,20619880689025994	0,0076935547223200179	0,30768686890134554
1	1	0	0	0	0	2	61188,32	0,300000012	4,0600276	0,00083385904852052518	0,30018925690824307	0,00121877668	-0,18868782831473722	0,0070401965679061709	0,32519784747686829
1	1	0	0	0	0	2	61398,32	0,300000012	4,07147408	0,00083385200845201805	0,30018672248358522	0,00122220244	-0,17117691123642928	0,0063868407080360909	0,34270876455517632
1	1	0	0	0	0	2	61608,32	0,300000012	4,07994413	0,00083384354339374438	0,30018367506261229	0,00122473261	-0,15366606906080986	0,0057334876428860269	0,36021960673079565
1	1	0	0	0	0	2	61818,32	0,300000012	4,09144735	0,00083384647078977677	0,30018472892518208	0,00122819003	-0,13615547660032989	0,0050801438949435635	0,37773019919127584
1	1	0	0	0	0	2	62028,32	0,300000012	4,10529757	0,00083383299735850765	0,30017987848993408	0,00123232778	-0,11864485654201354	0,0044267991172887174	0,39524081924959219
1	1	0	0	0	0	2	62238,32	0,300000012	4,11756372	0,0008338513480391767	0,30018648473496275	0,001236037	-0,10113399610492498	0,0037734453707786874	0,41275167968668064
1	1	0	0	0	0	2	62448,32	0,300000012	4,13337851	0,00083382145940760768	0,30017572482761792	0,00124073983	-0,083623371510920346	0,0031201004238912134	0,43026230428068538
1	1	0	0	0	0	2	62658,32	0,300000012	4,14894533	0,00083382317038046003	0,30017634077784358	0,00124541519	-0,066112945259078426	0,0024667628774165043	0,44777273053252723
1	1	0	0	0	0	2	62868,32	0,300000012	4,16489363	0,0008338546400931145	0,30018766987437818	0,00125024968	-0,04860207946588007	0,0018134089310628166	0,46528359632572557
1	1	0	0	0	0	2	63078,32	0,300000012	4,18311214	0,0008338497793078423	0,30018591999168339	0,00125571142	-0,031091336411659002	0,0011600595642653957	0,48279433937994662
1	1	0	0	0	0	2	63247,13	0,300000012	4,19993353	0,00073476220175623885	0,30018883305987008	0,00126077316	-0,017015001486328646	0,00063485258236772749	0,49687067430527699

File: LiCoO2 vs Li 300µm GCPL_02_GCPL_C04_loop5.txt
EC-Lab ASCII FILE
Nb header lines : 3
mode	ox/red	error	control changes	Ns changes	counter inc.	Ns	time/s	control/V/mA	Ewe/V	dq/mA.h	<I>/mA	P/W	(Q-Qo)/mA.h	x	Capacity/mA.h
1	0	0	1	1	0	1	63247,18	-0,300000012	4,18455744	0	0	0	0	0	0
1	0	0	1	0	0	1	63437,18	-0,300000012	4,08054972	-0,0008328781525923145	-0,29983613437474496	0,00122349628	-0,015820525506351341	0,00059028507756473869	0,015820525506351341
1	0	0	1	0	0	1	63627,18	-0,300000012	4,04863405	-0,00083287288101514176	-0,29983423660696621	0,00121391914	-0,03164523398228217	0,0011807262273485504	0,03164523398228217
1	0	0	1	0	0	1	63817,18	-0,300000012	4,02150679	-0,00083287983718348877	-0,29983674082756653	0,00120579544	-0,047469960076428723	0,001771168034491679	0,047469960076428723
1	0	0	1	0	0	1	64007,18	-0,300000012	3,99746966	-0,00083289245545864102	-0,29984128340661286	0,00119860645	-0,063294809313112435	0,0023616144362484355	0,063294809313112435
1	0	0	1	0	0	1	64197,18	-0,300000012	3,97608423	-0,00083288220792512115	-0,29983759429455251	0,00119217951	-0,079119789277024333	0,00295206571561384	0,079119789277024333
1	0	0	1	0	0	1	64387,18	-0,300000012	3,95567203	-0,00083289145528607898	-0,2998409233444912	0,00118607236	-0,094944742624914266	0,0035425160018996806	0,094944742624914266
1	0	0	1	0	0	1	64577,18	-0,300000012	3,93770146	-0,00083289371579223219	-0,29984173712670483	0,00118068722	-0,11076966166876818	0,0041329650082558144	0,11076966166876818
1	0	0	1	0	0	1	64767,18	-0,300000012	3,92081833	-0,00083289529450734451	-0,29984230546414426	0,00117562723	-0,12659461397891803	0,004723415255822176	0,12659461397891803
1	0	0	1	0	0	1	64957,18	-0,300000012	3,90740728	-0,00083288875974383616	-0,29983995294928557	0,00117159681	-0,14241963866549293	0,0053138682038502675	0,14241963866549293
1	0	0	1	0	0	1	65147,18	-0,300000012	3,89433956	-0,0008329030865563287	-0,29984511060177325	0,00116769865	-0,15824456225580035	0,005904317379840695	0,15824456225580035
1	0	0	1	0	0	1	65337,18	-0,300000012	3,88003182	-0,0008328994335300393	-0,29984379551231155	0,0011634035	-0,17406971474985341	0,0064947750965376358	0,17406971474985341
1	0	0	1	0	0	1	65527,18	-0,300000012	3,86850929	-0,00083289024252030592	-0,2998404867488137	0,00115993572	-0,18989482089596394	0,0070852310839305254	0,18989482089596394
1	0	0	1	0	0	1	65717,18	-0,300000012	3,85626197	-0,00083290290751556557	-0,29983912141359834	0,00115625816	-0,20572002771826483	0,0076756908276874381	0,20572002771826483
1	0	0	1	0	0	1	65907,19	-0,300000012	3,84893656	-0,00083290948210325504	-0,29984148709967501	0,00115407084	-0,22154531978887382	0,0082661537521733427	0,22154531978887382
1	0	0	1	0	0	1	66097,19	-0,300000012	3,83556342	-0,00083292166616684864	-0,29984587417121261	0,00115007791	-0,23737071172542602	0,0088566204027918592	0,23737071172542602
1	0	0	1	0	0	1	66287,20	-0,300000012	3,82211423	-0,00083292615778247514	-0,29984749099173069	0,00114605133	-0,25319627511278848	0,0094470934504706266	0,25319627511278848
1	0	0	1	0	0	1	66477,20	-0,300000012	3,80803537	-0,00083291634298695462	-0,29984395697073446	0,00114181638	-0,2690217713920215	0,010037563994254858	0,2690217713920215
1	0	0	1	0	0	1	66667,20	-0,300000012	3,79279304	-0,00083291872810158464	-0,29984481670896288	0,00113724929	-0,28484726492301677	0,01062803443549864	0,28484726492301677
1	0	0	1	0	0	1	66857,21	-0,300000012	3,77774119	-0,00083291398965153421	-0,29984310978672794	0,0011327297	-0,30067261818274739	0,011218499643032942	0,30067261818274739
1	0	0	1	0	0	1	67047,21	-0,300000012	3,75494432	-0,0008329187650630871	-0,29984482991710451	0,00112590066	-0,3164980971912928	0,011808969542424597	0,3164980971912928
1	0	0	1	0	0	1	67237,21	-0,300000012	3,7314415	-0,00083291256823639078	-0,29984259871569069	0,00111884507	-0,3323235052733591	0,012399436795453952	0,3323235052733591
1	0	0	1	0	0	1	67427,22	-0,300000012	3,70244455	-0,00083292334196633754	-0,29984647655045773	0,00111016491	-0,34814911202148147	0,012989911460980971	0,34814911202148147
1	0	0	1	0	0	1	67617,22	-0,300000012	3,66900253	-0,00083292202996048666	-0,29984600535773235	0,00110013573	-0,36397465470919392	0,013580383736327966	0,36397465470919392
1	0	0	1	0	0	1	67807,23	-0,300000012	3,62548804	-0,00083292187341219853	-0,29984594788098067	0,00108708791	-0,37980028705639686	0,014170859356991096	0,37980028705639686
1	0	0	1	0	0	1	67997,23	-0,300000012	3,57052732	-0,00083291747373342515	-0,29984436514840339	0,00107060245	-0,39562581139875328	0,014761330947848195	0,39562581139875328
1	0	0	1	0	0	1	68187,23	-0,300000012	3,49185395	-0,000832925954427984	-0,29984741752027392	0,00104702334	-0,4114513125595671	0,015351801673770765	0,4114513125595671
1	0	0	1	0	0	1	68377,24	-0,300000012	3,36562181	-0,00083292993212739622	-0,29984884899252678	0,00100917788	-0,4272767895329799	0,015942271497228886	0,4272767895329799
1	0	0	1	0	0	1	68567,24	-0,300000012	3,14175367	-0,00083291043288177907	-0,29984183048840909	0,000942029175	-0,44310225637876058	0,016532740942811434	0,44310225637876058
1	0	0	1	0	0	1	68757,24	-0,300000012	2,71916103	-0,00083291590653691021	-0,29984379985182394	0,000815323554	-0,4589276071369239	0,017123206057008899	0,4589276071369239
1	0	0	1	0	0	1	68947,25	-0,300000012	2,02968192	-0,00083291121093432115	-0,29984211058178912	0,000608584087	-0,47475287101680749	0,017713667929660934	0,47475287101680749
1	1	0	0	0	0	2	69125,19	0,300000012	3,92204404	0,00083385601904491584	0,3001822336654615	0,00117732794	-0,46123844762598029	0,017209426622613677	0,014175624796261389
1	1	0	0	0	0	2	69315,19	0,300000012	3,94154072	0,00083385499628219341	0,30018186659290675	0,00118317909	-0,445395244313032	0,016618295405594166	0,030018828109209741
1	1	0	0	0	0	2	69505,20	0,300000012	3,95209026	0,00083386002327501773	0,30018367531356582	0,00118635304	-0,42955195658675885	0,016027161039000016	0,045862115835482886
1	1	0	0	0	0	2	69695,20	0,300000012	3,96138072	0,00083385635578632358	0,30018235526388512	0,00118913664	-0,41370871114044461	0,015436028249927978	0,061705361281797299
1	1	0	0	0	0	2	69885,21	0,300000012	3,96962214	0,00083385791019598643	0,30018291558463706	0,0011916128	-0,39786553557130938	0,014844898068067437	0,07754853685093257
1	1	0	0	0	0	2	70075,21	0,300000012	3,97790146	0,00083386052705016397	0,30018385651178016	0,00119410176	-0,38202222693909619	0,014253762921444557	0,093391845483145792
1	1	0	0	0	0	2	70265,21	0,300000012	3,98614264	0,000833873943840464	0,30018868758258522	0,00119659491	-0,36617888336930598	0,013662626471253701	0,10923518905293611
1	1	0	0	0	0	2	70455,22	0,300000012	3,99381161	0,00083385556732283699	0,30018207105921082	0,0011988706	-0,35033551342775341	0,013071489037096934	0,12507855899448858
1	1	0	0	0	0	2	70645,22	0,300000012	4,00151873	0,00083385099187990029	0,30018042443901069	0,0012011776	-0,33449229656386451	0,012480357314473616	0,14092177585837742
1	1	0	0	0	0	2	70835,22	0,300000012	4,00943565	0,00083386053012808166	0,30018385873805856	0,00120356784	-0,318648871944968	0,011889217840231629	0,15676520047727392
1	1	0	0	0	0	2	71025,23	0,300000012	4,01800108	0,00083385662266115341	0,30018245095951757	0,0012061334	-0,30280554229185389	0,011298081909290672	0,172608530130388
1	1	0	0	0	0	2	71215,23	0,300000012	4,02530766	0,00083385813210407885	0,30018299547346624	0,00120832887	-0,28696226616039789	0,010706947975314736	0,18845180626184413
1	1	0	0	0	0	2	71405,24	0,300000012	4,03431225	0,00083386228000952141	0,30018448756467584	0,00121103798	-0,27111897738441082	0,010115813569554347	0,20429509503783123
1	1	0	0	0	0	2	71595,24	0,300000012	4,04209566	0,00083387618363234726	0,30018949341646419	0,00121339469	-0,25527533913991085	0,0095246661246538765	0,22013873328233094
1	1	0	0	0	0	2	71785,24	0,300000012	4,05006981	0,0008338777520921495	0,30019005842475654	0,00121579075	-0,23943165159288611	0,00893351684020992	0,23598242082935565
1	1	0	0	0	0	2	71975,25	0,300000012	4,05846357	0,00083387618970705408	0,30018949496030963	0,00121830811	-0,2235881274450097	0,0083423736524078784	0,25182594497723203
1	1	0	0	0	0	2	72165,25	0,300000012	4,0695281	0,00083387666768332326	0,30018966814314246	0,00122163026	-0,20774457871731517	0,0077512295474997734	0,26766949370492653
1	1	0	0	0	0	2	72355,25	0,300000012	4,07921934	0,00083387550572719834	0,30018924873242829	0,00122453785	-0,19190098840729962	0,0071600838910993651	0,28351308401494214
1	1	0	0	0	0	2	72545,26	0,300000012	4,08757496	0,0008338675354603264	0,30018638025837453	0,00122703437	-0,17605760637617181	0,0065689460058642918	0,29935646604606989
1	1	0	0	0	0	2	72735,26	0,300000012	4,09776211	0,00083386857128805581	0,30018675326430835	0,00123009388	-0,16021428563828339	0,0059778104075623898	0,31519978678395821
1	1	0	0	0	0	2	72925,27	0,300000012	4,1087122	0,00083388031007349491	0,30019097825941574	0,00123339833	-0,14437074053972368	0,0053866664380621875	0,33104333188251789
1	1	0	0	0	0	2	73115,27	0,300000012	4,1191473	0,00083388943161732621	0,3001942630720752	0,00123654434	-0,12852708642421898	0,0047955184009931904	0,34688698599802253
1	1	0	0	0	0	2	73305,27	0,300000012	4,13049793	0,00083386716474592691	0,30018624603502515	0,00123991864	-0,11268350384052333	0,0042043730328721651	0,36273056858171827
1	1	0	0	0	0	2	73495,28	0,300000012	4,13898754	0,00083386296030051174	0,30018473336967802	0,00124246092	-0,096840119435340838	0,00361323505905792	0,37857395298690067
1	1	0	0	0	0	2	73685,28	0,300000012	4,15270376	0,0008338445409288009	0,30017810237707763	0,0012465507	-0,080996738164461952	0,0030220972021887571	0,39441733425777965
1	1	0	0	0	0	2	73875,29	0,300000012	4,16594315	0,00083385433299177229	0,30018162669832666	0,00125053956	-0,065153539247866112	0,0024309661492030714	0,41026053317437542
1	1	0	0	0	0	2	74065,29	0,300000012	4,18036509	0,00083385852107736794	0,30018313549409402	0,0012548751	-0,049310401257855014	0,0018398373694701795	0,4261036711643865
1	1	0	0	0	0	2	74255,29	0,300000012	4,19604635	0,00083387151540650266	0,30018781224537043	0,00125960202	-0,033467070461399667	0,0012487013958696221	0,44194700196084186
1	1	0	0	0	0	2	74296,39	0,300000012	4,19991446	9,1324806044499085E-005	0,30019117900192179	0,00126077724	-0,030040254596734029	0,001120842288556015	0,44537381782550752