Folder: thesis/Experimentelles/Rohdaten/Batteriemessungen/AlteZelle/Studenten_Batterietests/LiCoO2 vs Li 300µm GCPL/ZView-Export

Note: README.md
# thesis

Zusammenfassung
---------------
Es konnten die Festkörperelektrolytkeramiken LATP, LAGP, LTO und LLTO hergestellt,
mit XRD und MAS-NMR charakterisiert und zu Elektrodensuspensionen weiterverarbeitet
werden. Aus den Daten der MAS-NMR konnten dabei gegenüber der XRD keine Mehrinfor-
mationen gewonnen werden. Die mit den Suspensionen gegossenen und gestanzten Elektro-
denproben wurden mittels REM und EDX untersucht und als Kathode in Testzellen verbaut.
Mit diesen wurden Ladekennlinien erstellt und eine zyklischer Voltametrie durchgeführt. Aus
den Ladekennlinien konnten die Kapazitäten und der Grad der Lithiuminsertation in die
Materialen bestimmt werden. Die zyklische Voltametrie lieferte nicht-reaktive Spannungsbe-
reiche der Materialien.

Für ein noch besseres Verständnis der Lithiumbewegung und -insertation wurde eine in-situ
NMR-Testzelle konzipiert, konstruiert, gebaut und getestet. Für den Test kam dabei eine
Lithium-Schwefel-Zelle zum Einsatz, für welche ein Di?usionskoe?zient sowie ein Spektrum
vor und nach einer 90 minütigen Ladezeit aufgenommen worden ist.

Abstract
--------
The all solid state electrolyte ceramics LATP, LAGP, LTO, and LLTO were successfully
synthesized and characterized by using XRD. MAS-NMR spectroscopy were not able to ge-
nerate additional information. All powders were processed to electrode slurries, casted on
aluminum foils and punched to electrode samples. Those samples were studied by SEM and
EDX and then build into battery test cells. The cells were analyzed by measuring the charge
curves as well as cyclic voltammetry. With the charge curves capacities and the amount of
lithium insertion were calculated. The cyclic voltammetry was able to detect non-reactive
voltage regions.

To be able to better understand lithium movement and insertion a novel in-situ NMR sample
cell was designed, constructed, built and tested. Therefore, a lithium-sulfur-cell was built into
the in-situ sample cell. With this setting a diffusion coeffcient as well as a NMR spectrum
before and after 90 minutes of charging were measured.

File: LiCoO2 vs Li 300µm GCPL_02_GCPL_C04_loop0.txt
EC-Lab ASCII FILE
Nb header lines : 3
mode	ox/red	error	control changes	Ns changes	counter inc.	Ns	time/s	control/V/mA	Ewe/V	dq/mA.h	<I>/mA	P/W	(Q-Qo)/mA.h	x	Capacity/mA.h
1	0	0	1	1	0	1	3600,00	-0,300000012	2,81476045	0	0	0	0	0	0
1	1	0	0	0	0	2	3713,63	0,300000012	3,83617878	0,00083384029978017011	0,30018251550410938	0,00115155382	0,0038739438581042861	-0,00014454205391878387	0,0066708465419858688
1	1	0	0	0	0	2	3843,63	0,300000012	3,85237503	0,00083383102267318298	0,3001791757455097	0,00115640275	0,01471391209741831	-0,00054899584341989498	0,017510814781299894
1	1	0	0	0	0	2	3973,63	0,300000012	3,87103224	0,00083383404065171878	0,30018026221781005	0,00116200745	0,025553671683923075	-0,00095344184780415565	0,028350574367804656
1	1	0	0	0	0	2	4103,63	0,300000012	3,87238669	0,00083382682627605069	0,30017766202891027	0,00116240396	0,036393452384821901	-0,0013578886399948477	0,039190355068703482
1	1	0	0	0	0	2	4233,63	0,300000012	3,86809444	0,00083382517364621158	0,30017706614693798	0,00116111326	0,047233190360369619	-0,0017623338380452448	0,0500300930442512
1	1	0	0	0	0	2	4363,63	0,300000012	3,87656474	0,00083381612154013581	0,30017380738871123	0,0011636432	0,058072895398145574	-0,0021667778071430922	0,060869798082027162
1	1	0	0	0	0	2	4493,63	0,300000012	3,87471414	0,0008338237132545975	0,30017654040595053	0,00116309826	0,068912636211270093	-0,0025712231110672954	0,071709538895151667
1	1	0	0	0	0	2	4623,63	0,300000012	3,87374115	0,0008338320713192224	0,30017954930925197	0,00116281782	0,079752389298514189	-0,0029756688729554016	0,082549291982395763
1	1	0	0	0	0	2	4753,63	0,300000012	3,87160468	0,00083384452104402918	0,30018403121023661	0,00116219395	0,090592302857831744	-0,0033801206222723264	0,093389205541713318
1	1	0	0	0	0	2	4883,63	0,300000012	3,87168097	0,00083384298852251635	0,30018347950248538	0,00116221467	0,10143219856987461	-0,0037845717056834368	0,10422910125375618
1	1	0	0	0	0	2	5013,63	0,300000012	3,87824345	0,00083384717991948134	0,30018498840541101	0,00116419047	0,11227212288702258	-0,0041890238563894784	0,11506902557090416
1	1	0	0	0	0	2	5143,63	0,300000012	3,88406181	0,00083384469347033242	0,30018409328370656	0,00116593356	0,12311201381268667	-0,0045934747612143597	0,12590891649656824
1	1	0	0	0	0	2	5273,63	0,300000012	3,87748027	0,00083382717366516595	0,3001777861537703	0,00116393343	0,13395194492834706	-0,004997927165582041	0,13674884761222864
1	1	0	0	0	0	2	5403,63	0,300000012	3,88039923	0,00083384630620479578	0,30018467386812045	0,00116483634	0,1447917982981344	-0,0054023766691466682	0,147588700982016
1	1	0	0	0	0	2	5533,63	0,300000012	3,8793118	0,00083384507092502387	0,30018422916739712	0,00116450817	0,15563159679800336	-0,0058068241254408666	0,15842849948188496
1	1	0	0	0	0	2	5663,63	0,300000012	3,88249755	0,00083384805723528077	0,30018530423910259	0,00116546871	0,16647157217405802	-0,0062112781812233651	0,16926847485793958
1	1	0	0	0	0	2	5793,63	0,300000012	3,88730502	0,00083385160037047334	0,30018657976778739	0,0011669168	0,17731167468723552	-0,0066157369806628557	0,18010857737111709
1	1	0	0	0	0	2	5923,63	0,300000012	3,89396286	0,00083385044080681267	0,30018616232486451	0,00116891379	0,18815164615806835	-0,007020190890736279	0,19094854884194992
1	1	0	0	0	0	2	6053,63	0,300000012	3,88743854	0,00083385365868608154	0,30018732076141536	0,00116695976	0,19899162850902867	-0,0074246452067618867	0,20178853119291027
1	1	0	0	0	0	2	6183,63	0,300000012	3,88177276	0,00083384996346135936	0,3001859904804992	0,00116525381	0,20983171331923594	-0,0078291033456797555	0,21262861600311754
1	1	0	0	0	0	2	6313,63	0,300000012	3,88448167	0,00083383507916828006	0,30018063213492582	0,00116604613	0,22067170909969235	-0,0082335581627779174	0,22346861178357395
1	1	0	0	0	0	2	6443,63	0,300000012	3,88957524	0,00083384575224916147	0,30018447444408966	0,00116759015	0,23151152575134627	-0,0086380062963396198	0,23430842843522784
1	1	0	0	0	0	2	6573,63	0,300000012	3,89661455	0,00083384982583589018	0,30018594093532973	0,00116970891	0,24235153781752842	-0,009042461721080105	0,24514844050140998
1	1	0	0	0	0	2	6703,63	0,300000012	3,89838862	0,00083383678667578432	0,30018124683763475	0,00117022311	0,25319146740739261	-0,0094469140685182784	0,25598837009127418
1	1	0	0	0	0	2	6833,63	0,300000012	3,89110136	0,00083383967469301478	0,30018228652385037	0,00116803974	0,26403140444580592	-0,0098513666938718336	0,26682830712968746
1	1	0	0	0	0	2	6963,63	0,300000012	3,89209318	0,0008338444023281335	0,30018398847251373	0,00116834405	0,27487138677230349	-0,010255821008984704	0,27766828945618506
1	1	0	0	0	0	2	7093,63	0,300000012	3,89144468	0,00083385076731443405	0,3001862798676096	0,00116815825	0,28571133407090976	-0,010660274017159853	0,2885082367547913
1	1	0	0	0	0	2	7223,63	0,300000012	3,89972401	0,00083384337468114163	0,30018361851959213	0,00117063324	0,29655136637653126	-0,011064730197061034	0,2993482690604128
1	1	0	0	0	0	2	7353,63	0,300000012	3,8962903	0,00083384386254019213	0,30018379414885235	0,0011696032	0,30739131474347955	-0,011469183245097461	0,31018821742736109
1	1	0	0	0	0	2	7483,63	0,300000012	3,9005444	0,0008338409372882711	0,30018274105814816	0,00117087609	0,31823129045864154	-0,01187363731353251	0,32102819314252307
1	1	0	0	0	0	2	7613,63	0,300000012	3,90817523	0,00083385512014064525	0,30018784688506464	0,0011731867	0,32907124406655334	-0,012278090557116334	0,33186814675043488
1	1	0	0	0	0	2	7743,63	0,300000012	3,91426063	0,00083383712246186202	0,30018136772062419	0,00117498811	0,33991117892881606	-0,012682543101274782	0,3427080816126976
1	1	0	0	0	0	2	7873,63	0,300000012	3,91681695	0,00083383614684641357	0,30018101649905856	0,00117575412	0,3507509739080921	-0,013086990426210926	0,35354787659197363
1	1	0	0	0	0	2	8003,63	0,300000012	3,91675973	0,00083384069497883315	0,30018265382674944	0,00117574329	0,36159081775401075	-0,013491439574427208	0,36438772043789229
1	1	0	0	0	0	2	8133,63	0,300000012	3,92473388	0,00083383487161166131	0,30018055741454214	0,00117812876	0,37243073279412954	-0,013895891378994816	0,37522763547801107
1	1	0	0	0	0	2	8263,63	0,300000012	3,92944598	0,00083383195207019648	0,30017950637960205	0,00117953913	0,38327055826183693	-0,014300339841495325	0,38606746094571846
1	1	0	0	0	0	2	8393,63	0,300000012	3,93799233	0,00083383831704490714	0,3001817977705257	0,00118211366	0,39411037109128346	-0,014704787832445331	0,39690727377516499
1	1	0	0	0	0	2	8523,63	0,300000012	3,94342947	0,0008338339326861833	0,30018021940136595	0,00118373951	0,40495023843782182	-0,015109237857501331	0,40774714112170342
1	1	0	0	0	0	2	8653,63	0,300000012	3,93722939	0,00083383783383501914	0,30018162381496384	0,00118188397	0,41579015674458317	-0,015513689783951763	0,4185870594284647
1	1	0	0	0	0	2	8783,63	0,300000012	3,94321942	0,00083384482293162074	0,30018413988977094	0,0011836919	0,42663005535856755	-0,015918140975638218	0,42942695804244915
1	1	0	0	0	0	2	8913,63	0,300000012	3,95600104	0,00083384409631623155	0,30018387830822771	0,00118752779	0,43746997961922515	-0,016322593124236525	0,44026688230310669
1	1	0	0	0	0	2	9043,63	0,300000012	3,98129702	0,00083383861869076877	0,30018190636303718	0,00119511329	0,44830992842292147	-0,016727046188568608	0,45110683110680307
1	1	0	0	0	0	2	9173,63	0,300000012	3,9814117	0,0008338458541813824	0,30018451113968966	0,00119515811	0,45914989787908269	-0,017131500023471923	0,46194680056296422
1	1	0	0	0	0	2	9303,63	0,300000012	4,00258732	0,00083383819902274342	0,30018175528254618	0,00120150368	0,46998987527590022	-0,017535954154651805	0,47278677795978182
1	1	0	0	0	0	2	9433,63	0,300000012	3,99715018	0,00083383086605038899	0,30017911541246669	0,00119986106	0,48082970710158547	-0,017940402854377014	0,48362660978546701
1	1	0	0	0	0	2	9563,63	0,300000012	4,00644064	0,00083384851247403354	0,30018546812505562	0,00120267528	0,49166966478310394	-0,018344856249952576	0,49446656746698547
1	1	0	0	0	0	2	9693,63	0,300000012	4,02780676	0,00083384007952610662	0,30018243226376518	0,00120907684	0,50250955536662579	-0,018749307142011674	0,50530645805050746
1	1	0	0	0	0	2	9823,63	0,300000012	4,0441556	0,0008338383357955351	0,30018180452075174	0,00121398189	0,51334940949238861	-0,019153756673782762	0,51614631217627027
1	1	0	0	0	0	2	9953,63	0,300000012	4,06256485	0,00083384477469159501	0,30018412252336141	0,00121951743	0,52418932879658067	-0,019558208637448678	0,52698623148046234
1	1	0	0	0	0	2	10083,63	0,300000012	4,07286644	0,00083383367979526515	0,30018012836063437	0,00122259359	0,53502932193781958	-0,01996266335607409	0,53782622462170125
1	1	0	0	0	0	2	10213,63	0,300000012	4,08412218	0,00083383538904454976	0,30018074369038419	0,00122597488	0,54586913411521107	-0,02036711132269504	0,54866603679909274
1	1	0	0	0	0	2	10343,63	0,300000012	4,08746052	0,0008338461089895831	0,30018460287064294	0,0012269927	0,55670905630820525	-0,020771563394146048	0,55950595899208691
1	1	0	0	0	0	2	10473,63	0,300000012	4,1007762	0,00083384192435608973	0,3001830964025671	0,00123098365	0,56754899019403616	-0,021176015901872518	0,57034589287791782
1	1	0	0	0	0	2	10603,63	0,300000012	4,11989117	0,00083385408994224333	0,30018747601363546	0,00123673968	0,57838894249899392	-0,021580469096841373	0,58118584518287565
1	1	0	0	0	0	2	10733,63	0,300000012	4,13948345	0,0008338433041125536	0,3001835931149001	0,00124260504	0,5892288855081056	-0,021984921944969712	0,5920257881919872
1	1	0	0	0	0	2	10863,63	0,300000012	4,1474576	0,00083382141763965286	0,30017571398456051	0,00124496606	0,60006867316655526	-0,022389368996755978	0,60286557585043686
1	1	0	0	0	0	2	10993,63	0,300000012	4,1576829	0,00083383278491761946	0,30017980620467802	0,00124805246	0,61090841853309722	-0,022793814470574307	0,61370532121697882
1	1	0	0	0	0	2	11123,63	0,300000012	4,18105221	0,00083382245411475507	0,30017608711560179	0,00125505193	0,62174816012832922	-0,023198259803679994	0,62454506281221094
1	1	0	0	0	0	2	11253,63	0,300000012	4,1958127	0,00083383443988859648	0,30018040199423693	0,00125950074	0,63258794273775885	-0,023602706667080534	0,63538484542164058
1	1	0	0	0	0	2	11285,35	0,300000012	4,19997168	0,00014367032441331282	0,30018176097069766	0,00126075489	0,63523308956091507	-0,023701400651490221	0,63802999224479667

File: LiCoO2 vs Li 300µm GCPL_02_GCPL_C04_loop1.txt
EC-Lab ASCII FILE
Nb header lines : 3
mode	ox/red	error	control changes	Ns changes	counter inc.	Ns	time/s	control/V/mA	Ewe/V	dq/mA.h	<I>/mA	P/W	(Q-Qo)/mA.h	x	Capacity/mA.h
1	0	0	1	1	0	1	11285,40	-0,300000012	4,18844891	0	0	0	0	0	0
1	0	0	1	0	0	1	11515,40	-0,300000012	4,09058428	-0,0008329055424812768	-0,29984599892355315	0,00122654531	-0,01915278895983033	0,00071461630728990285	0,01915278895983033
1	0	0	1	0	0	1	11745,40	-0,300000012	4,07120228	-0,00083291376384927168	-0,29984895861606714	0,00122074573	-0,038309737883885043	0,0014293878284381491	0,038309737883885043
1	0	0	1	0	0	1	11975,40	-0,300000012	4,05861139	-0,00083289787312183117	-0,2998432379541193	0,00121694722	-0,057466467225294336	0,0021441511566626624	0,057466467225294336
1	0	0	1	0	0	1	12205,40	-0,300000012	4,0308733	-0,00083290580861601562	-0,29984609473206029	0,00120864157	-0,076623182177435366	0,0028589139480042304	0,076623182177435366
1	0	0	1	0	0	1	12435,40	-0,300000012	3,99968243	-0,00083292416237956954	-0,29985270208701971	0,00119931553	-0,095780069654959091	0,0035736831764997894	0,095780069654959091
1	0	0	1	0	0	1	12665,40	-0,300000012	3,98234153	-0,00083291338183648051	-0,29984882109146067	0,00119410036	-0,11493729958130022	0,0042884651822211533	0,11493729958130022
1	0	0	1	0	0	1	12895,40	-0,300000012	3,92373729	-0,00083290733393695629	-0,29984664384760557	0,00117651944	-0,13409429045597976	0,0050032382686036141	0,13409429045597976
1	0	0	1	0	0	1	13125,40	-0,300000012	3,90105462	-0,00083290790623095309	-0,29984684987344691	0,00116971892	-0,15325128824705651	0,0057180116130461555	0,15325128824705651
1	0	0	1	0	0	1	13355,40	-0,300000012	3,90004349	-0,0008329311536517408	-0,29985521894503187	0,00116944837	-0,17240845515994662	0,0064327912676509402	0,17240845515994662
1	0	0	1	0	0	1	13585,40	-0,300000012	3,90231371	-0,0008329155731681321	-0,29984960997086477	0,00117010728	-0,1915655312345584	0,0071475675329574246	0,1915655312345584
1	0	0	1	0	0	1	13815,40	-0,300000012	3,86408353	-0,00083293877872659098	-0,29985796397201114	0,00115867623	-0,21072271127168106	0,0078623476772449702	0,21072271127168106
1	0	0	1	0	0	1	14045,40	-0,300000012	3,85834146	-0,00083292065869271757	-0,29985144075973773	0,0011569293	-0,22988003307351898	0,0085771331109646477	0,22988003307351898
1	0	0	1	0	0	1	14275,40	-0,300000012	3,84470129	-0,00083292076305548339	-0,29985147833033389	0,0011528394	-0,24903715904109274	0,0092919112378446272	0,24903715904109274
1	0	0	1	0	0	1	14505,40	-0,300000012	3,8348577	-0,00083292248898744589	-0,29985209966584794	0,00114989013	-0,26819426297232768	0,010006688542519178	0,26819426297232768
1	0	0	1	0	0	1	14735,40	-0,300000012	3,79384232	-0,00083290912765761216	-0,29984728958704954	0,00113757339	-0,28735129982610797	0,010721463344443707	0,28735129982610797
1	0	0	1	0	0	1	14965,40	-0,300000012	3,78060269	-0,00083290028002030323	-0,29984410443757978	0,0011335914	-0,30650830277604128	0,011436236881370123	0,30650830277604128
1	0	0	1	0	0	1	15195,40	-0,300000012	3,76904225	-0,00083291897247566118	-0,29985083372159008	0,00113015051	-0,32566528997118541	0,01215100983046417	0,32566528997118541
1	0	0	1	0	0	1	15425,40	-0,300000012	3,7870698	-0,00083291520933972467	-0,29984947899263654	0,00113555091	-0,34482225946585766	0,012865782119129813	0,34482225946585766
1	0	0	1	0	0	1	15655,40	-0,300000012	3,78916836	-0,00083292602341208192	-0,29985337205873222	0,00113619491	-0,36397914383234502	0,013580551231548424	0,36397914383234502
1	0	0	1	0	0	1	15885,40	-0,300000012	3,75309372	-0,00083291398549576602	-0,29984903840880614	0,00112536154	-0,38313609262852614	0,014295322747925534	0,38313609262852614
1	0	0	1	0	0	1	16115,40	-0,300000012	3,75971365	-0,00083291051874889267	-0,29984779037991654	0,00112734188	-0,40229302732346522	0,015010093738166342	0,40229302732346522
1	0	0	1	0	0	1	16345,40	-0,300000012	3,75206375	-0,00083290801755256128	-0,29984688994922637	0,00112504466	-0,42144993509574464	0,015724863723886525	0,42144993509574464
1	0	0	1	0	0	1	16575,40	-0,300000012	3,74891591	-0,00083290375854406093	-0,29984535670614771	0,00112409506	-0,44060696334010906	0,016439638204582173	0,44060696334010906
1	0	0	1	0	0	1	16805,40	-0,300000012	3,73777509	-0,00083291310678588019	-0,29984872207324339	0,00112076709	-0,45976387129972442	0,017154408197292109	0,45976387129972442
1	0	0	1	0	0	1	17035,40	-0,300000012	3,72932386	-0,00083291295340657229	-0,29984866685669184	0,00111823285	-0,47892095356407488	0,017869184693546067	0,47892095356407488
1	0	0	1	0	0	1	17265,40	-0,300000012	3,71663785	-0,00083290628575781978	-0,29984626650311194	0,00111442001	-0,49807772952228026	0,01858394976110592	0,49807772952228026
1	0	0	1	0	0	1	17495,40	-0,300000012	3,68746901	-0,00083293230479293402	-0,29985563335586643	0,0011057083	-0,51723464281713062	0,01929871995288065	0,51723464281713062
1	0	0	1	0	0	1	17725,40	-0,300000012	3,62268376	-0,00083291027847097971	-0,29984770387986688	0,00108625344	-0,53639176859293978	0,020013498072605635	0,53639176859293978
1	0	0	1	0	0	1	17955,40	-0,300000012	3,25173235	-0,00083291714141766234	-0,29985017454070253	0,000975032512	-0,55554887179408563	0,020728275350039578	0,55554887179408563
1	1	0	0	0	0	2	18170,44	0,300000012	2,59133124	0,00083383117693993779	0,3001792273327056	0,000777863839	-0,57179248336072653	0,021334346337358979	0,00083384730365375667
1	1	0	0	0	0	2	18400,44	0,300000012	3,8422451	0,00083382159642544051	0,3001757783474448	0,00115334895	-0,55261436467970957	0,02061878494411543	0,02001196598467065
1	1	0	0	0	0	2	18630,44	0,300000012	3,86826611	0,00083383062299589312	0,30017902791284704	0,0011611724	-0,53343645056853408	0,019903231183647712	0,039189880095846112
1	1	0	0	0	0	2	18860,44	0,300000012	3,87622118	0,00083382139526969856	0,30017570593137683	0,00116354739	-0,51425839488732538	0,019187672141011715	0,058367935777054886
1	1	0	0	0	0	2	19090,44	0,300000012	3,86572886	0,00083383261730935834	0,3001797458657033	0,00116041349	-0,49508037256593882	0,018472114343075536	0,07754595809844137
1	1	0	0	0	0	2	19320,44	0,300000012	3,86406922	0,0008338355672127671	0,30018080783094323	0,00115991943	-0,475902315441296	0,017756555246583066	0,096724015223084211
1	1	0	0	0	0	2	19550,44	0,300000012	3,86422181	0,00083382168170975309	0,30017580904979776	0,00115994585	-0,45672433502866381	0,017040999012318858	0,11590199563571645
1	1	0	0	0	0	2	19780,44	0,300000012	3,87625933	0,00083382908234000218	0,30017847327671962	0,00116356963	-0,43754622613752602	0,016325437984348864	0,13508010452685426
1	1	0	0	0	0	2	20010,44	0,300000012	3,87429452	0,00083383226671814912	0,30017961965286643	0,00116298429	-0,41836806144461094	0,015609874874339533	0,15425826921976944
1	1	0	0	0	0	2	20240,44	0,300000012	3,8886404	0,00083385436070627635	0,30018757348868851	0,00116732158	-0,39918979463199008	0,014894307954106678	0,17343653603239034
1	1	0	0	0	0	2	20470,44	0,300000012	3,88640833	0,00083382232199774848	0,30017603955347885	0,00116660667	-0,38001138174271488	0,014178735583557448	0,1926149489216657
1	1	0	0	0	0	2	20700,44	0,300000012	3,9077363	0,00083383936643600461	0,30018217555132538	0,0011730328	-0,36083330836854784	0,013463175880773386	0,21179302229583283
1	1	0	0	0	0	2	20930,44	0,300000012	3,89857936	0,00083384566789534362	0,30018444407671488	0,00117029285	-0,34165522161259174	0,012747615678696784	0,23097110905178909
1	1	0	0	0	0	2	21160,44	0,300000012	3,8984077	0,00083384843645989888	0,30018544075996685	0,00117024523	-0,32247693749258509	0,012032048112702093	0,25014939317179581
1	1	0	0	0	0	2	21390,44	0,300000012	3,90363479	0,0008338298405590985	0,30017874623559757	0,0011717882	-0,30329853083992102	0,01131647597484921	0,26932779982445994
1	1	0	0	0	0	2	21620,44	0,300000012	3,91082692	0,00083383499700327718	0,30018060255552442	0,00117395434	-0,28412036487185565	0,010600912817262307	0,28850596579252531
1	1	0	0	0	0	2	21850,44	0,300000012	3,9247148	0,00083383914226459123	0,30018209484961555	0,00117812911	-0,26494200564742522	0,0098853424490205862	0,30768432501695578
1	1	0	0	0	0	2	22080,44	0,300000012	3,92584038	0,00083383682936926682	0,3001812622072887	0,00117846369	-0,24576366055604586	0,0091697726081020045	0,3268626701083351
1	1	0	0	0	0	2	22310,44	0,300000012	3,95504713	0,0008338277764717737	0,30017800316415174	0,00118721812	-0,22658540983542733	0,008454206288283392	0,3460409208289536
1	1	0	0	0	0	2	22540,44	0,300000012	3,9754405	0,00083382510009076864	0,30017703966697824	0,00119333598	-0,2074070154017104	0,0077386346063358554	0,36521931526267053
1	1	0	0	0	0	2	22770,44	0,300000012	3,99062586	0,00083383670662343501	0,30018121801878867	0,00119791098	-0,1882286601226008	0,0070230643852993613	0,38439767054178022
1	1	0	0	0	0	2	23000,44	0,300000012	4,00329304	0,00083381749699678682	0,30017430255311162	0,00120168575	-0,1690504666059855	0,0063075001998390208	0,40357586405839552
1	1	0	0	0	0	2	23230,44	0,300000012	4,01357555	0,00083383034641875162	0,30017892834507494	0,00120479078	-0,14987225776087334	0,0055919354424518541	0,42275407290350758
1	1	0	0	0	0	2	23460,44	0,300000012	4,03599072	0,00083383598319855002	0,30018095758582694	0,0012115275	-0,1306940561607307	0,0048763709553842413	0,44193227450365018
1	1	0	0	0	0	2	23690,44	0,300000012	4,06552219	0,00083383876157800358	0,3001819578024423	0,00122039637	-0,11151586418320989	0,0041608068273495853	0,46111046648117088
1	1	0	0	0	0	2	23920,44	0,300000012	4,06775379	0,0008338286242485047	0,3001783083637785	0,00122105144	-0,092337664323291085	0,0034452424052120627	0,48028866634108973
1	1	0	0	0	0	2	24150,44	0,300000012	4,09343147	0,00083382448386483725	0,30017681782564019	0,00122875324	-0,073159576557920282	0,002729682165472839	0,49946675410646061
1	1	0	0	0	0	2	24380,44	0,300000012	4,12889576	0,00083383091656201408	0,30017913359665197	0,00123940839	-0,053981674566168838	0,002014128857197129	0,51864465609821197
1	1	0	0	0	0	2	24610,44	0,300000012	4,15980053	0,00083382532935672333	0,30017712220272294	0,00124867691	-0,034803619234557869	0,0012985698276050918	0,53782271142982285
1	1	0	0	0	0	2	24840,44	0,300000012	4,18662262	0,00083381862129436595	0,30017470730024499	0,00125671818	-0,015625740503265718	0,00058301738720839206	0,55700059016111494
1	1	0	0	0	0	2	24964,70	0,300000012	4,20000982	0,0003554130249056551	0,30017992331940634	0,00126075861	-0,0052644557695629798	0,00019642392289845645	0,5673618748948176