Folder: thesis/Experimentelles/Rohdaten/Batteriemessungen/AlteZelle/Studenten_Batterietests/LiCoO2 vs Li 300µm GCPL/ZView-Export (part 2)

File: LiCoO2 vs Li 300µm GCPL_02_GCPL_C04_loop2.txt
EC-Lab ASCII FILE
Nb header lines : 3
mode	ox/red	error	control changes	Ns changes	counter inc.	Ns	time/s	control/V/mA	Ewe/V	dq/mA.h	<I>/mA	P/W	(Q-Qo)/mA.h	x	Capacity/mA.h
1	0	0	1	1	0	1	24964,75	-0,300000012	4,18873549	0	0	0	0	0	0
1	0	0	1	0	0	1	25194,75	-0,300000012	4,10363293	-0,0008329067415081792	-0,29984643057324326	0,00123045966	-0,019152626343065114	0,00071461023983975206	0,019152626343065114
1	0	0	1	0	0	1	25424,75	-0,300000012	4,05945063	-0,00083290602902405786	-0,29984617407895648	0,00121721078	-0,038309520287300435	0,0014293797096170155	0,038309520287300435
1	0	0	1	0	0	1	25654,75	-0,300000012	4,02593231	-0,00083290056573351219	-0,29984420729433626	0,0012071525	-0,057466309677349498	0,002144145278337015	0,057466309677349498
1	0	0	1	0	0	1	25884,75	-0,300000012	3,99525666	-0,00083291903571784499	-0,29985085648877651	0,00119798118	-0,076623375989598003	0,0028589211793966016	0,076623375989598003
1	0	0	1	0	0	1	26114,75	-0,300000012	3,96671748	-0,00083291990407804646	-0,2998511690984528	0,00118942489	-0,095780478867648653	0,0035736984447754291	0,095780478867648653
1	0	0	1	0	0	1	26344,75	-0,300000012	3,94521785	-0,00083291079809268314	-0,29984789094368237	0,00118296524	-0,11493762864667205	0,0042884774600926093	0,11493762864667205
1	0	0	1	0	0	1	26574,75	-0,300000012	3,94359636	-0,00083289795558982426	-0,29984326764259718	0,00118246081	-0,13409435386641688	0,0050032406345322797	0,13409435386641688
1	0	0	1	0	0	1	26804,75	-0,300000012	3,94838452	-0,00083290432261592819	-0,29984555977202234	0,00118390552	-0,15325097486453126	0,0057179999203227917	0,15325097486453126
1	0	0	1	0	0	1	27034,75	-0,300000012	3,91606832	-0,00083292594931523008	-0,29985334538386528	0,00117424619	-0,17240792713408701	0,0064327715662961792	0,17240792713408701
1	0	0	1	0	0	1	27264,75	-0,300000012	3,89040971	-0,00083290225960645414	-0,29984481708860275	0,00116651924	-0,19156485100863734	0,007147542152813737	0,19156485100863734
1	0	0	1	0	0	1	27494,75	-0,300000012	3,87657905	-0,00083291243246859981	-0,29984847931901946	0,00116238638	-0,21072186641866986	0,0078623161546432051	0,21072186641866986
1	0	0	1	0	0	1	27724,75	-0,300000012	3,85933328	-0,0008329095689853033	-0,29984744846502029	0,00115721126	-0,22987882410056419	0,0085770880025582246	0,22987882410056419
1	0	0	1	0	0	1	27954,75	-0,300000012	3,84649467	-0,00083291684331330982	-0,29985006722313434	0,00115337165	-0,24903567938080285	0,0092918560297297869	0,24903567938080285
1	0	0	1	0	0	1	28184,75	-0,300000012	3,83434248	-0,00083291551129023245	-0,29984958769482061	0,00114972598	-0,26819262829485229	0,010006627550504725	0,26819262829485229
1	0	0	1	0	0	1	28414,75	-0,300000012	3,82808542	-0,00083291473351253402	-0,29984930769484589	0,00114784879	-0,28734958634485664	0,010721399412154419	0,28734958634485664
1	0	0	1	0	0	1	28644,75	-0,300000012	3,81822252	-0,00083291312743723392	-0,29984872950773075	0,00114488916	-0,3065066886552441	0,011436176656352971	0,3065066886552441
1	0	0	1	0	0	1	28874,75	-0,300000012	3,81505585	-0,00083291520486937626	-0,2998494773833111	0,00114394247	-0,3256637437025344	0,012150952137101819	0,3256637437025344
1	0	0	1	0	0	1	29104,75	-0,300000012	3,8261013	-0,0008329176325433783	-0,29985035134596243	0,00114725786	-0,34482073667221126	0,012865725301651448	0,34482073667221126
1	0	0	1	0	0	1	29334,75	-0,300000012	3,82386923	-0,00083292026437984576	-0,29985129880710214	0,0011465922	-0,3639777876383847	0,013580500630128341	0,3639777876383847
1	0	0	1	0	0	1	29564,75	-0,300000012	3,81423545	-0,0008329087438152896	-0,29984715140381171	0,00114368764	-0,38313477169298496	0,014295273462044475	0,38313477169298496
1	0	0	1	0	0	1	29794,75	-0,300000012	3,8207407	-0,00083292052067816243	-0,29985139107449734	0,00114565436	-0,40229176166691597	0,0150100465148188	0,40229176166691597
1	0	0	1	0	0	1	30024,75	-0,300000012	3,81721139	-0,00083291342450181658	-0,29984883645098182	0,00114458636	-0,42144874689194458	0,015724819390405187	0,42144874689194458
1	0	0	1	0	0	1	30254,75	-0,300000012	3,81230879	-0,00083291901802851085	-0,29985085012061619	0,00114312407	-0,44060572067946426	0,016439591839242742	0,44060572067946426
1	0	0	1	0	0	1	30484,75	-0,300000012	3,77350616	-0,00083289510906736064	-0,29984224289449786	0,00113145658	-0,45976265280641357	0,017154362733668403	0,45976265280641357
1	0	0	1	0	0	1	30714,75	-0,300000012	3,75074744	-0,00083291584091385203	-0,29984970635932512	0,00112466048	-0,47891962195364051	0,017869135009370394	0,47891962195364051
1	0	0	1	0	0	1	30944,75	-0,300000012	3,70189118	-0,0008329193534023232	-0,29985097085519008	0,00111001567	-0,49807668420192026	0,01858391075879784	0,49807668420192026
1	0	0	1	0	0	1	31174,75	-0,300000012	3,5911305	-0,00083291276710232102	-0,29984859978716058	0,00107679539	-0,51723373824487386	0,019298686202073536	0,51723373824487386
1	0	0	1	0	0	1	31404,75	-0,300000012	3,21188068	-0,00083291583390368358	-0,29984970383566445	0,000963081489	-0,53639082295944717	0,020013462789748605	0,53639082295944717
1	0	0	1	0	0	1	31634,73	-0,300000012	2,00013161	-0,00083076546198295219	-0,29984918082208122	0,000599737803	-0,5555455835096761	0,020728152659727114	0,5555455835096761
1	1	0	0	0	0	2	31854,73	0,300000012	3,86889577	0,00083382477133307187	0,30017692131420595	0,0011613532	-0,53720135007097722	0,020043704646045085	0,018344233438698781
1	1	0	0	0	0	2	32084,73	0,300000012	3,87669826	0,00083381409196721178	0,30017307674244979	0,00116368046	-0,5180234219178167	0,019328150361652026	0,037522161591859328
1	1	0	0	0	0	2	32314,73	0,300000012	3,88497758	0,00083382325295607245	0,30017637469847955	0,0011661785	-0,49884527685153574	0,018612587983938803	0,056700306658140493
1	1	0	0	0	0	2	32544,73	0,300000012	3,89148283	0,00083382747373150464	0,3001778941776535	0,00116813707	-0,47966717508470771	0,017897027221786384	0,075878408424968538
1	1	0	0	0	0	2	32774,73	0,300000012	3,90794635	0,00083382164693044288	0,30017579370568486	0,00117307086	-0,46048906014382432	0,01718146596809225	0,095056523365851917
1	1	0	0	0	0	2	33004,73	0,300000012	3,9125247	0,00083383140732016832	0,30017930607613299	0,001174459	-0,44131099979430362	0,016465906751275251	0,11423458371537264
1	1	0	0	0	0	2	33234,73	0,300000012	3,91687417	0,00083383175524406963	0,30017943132873728	0,00117576506	-0,42213296154288717	0,015750348358968237	0,13341262196678918
1	1	0	0	0	0	2	33464,73	0,300000012	3,91845775	0,00083383560409645248	0,30018081691559251	0,00117624586	-0,40295494710407437	0,015034790855141482	0,15259063640560214
1	1	0	0	0	0	2	33694,73	0,300000012	3,91208601	0,00083383675730062848	0,30018123206909517	0,00117433479	-0,38377662782518682	0,014319221977321674	0,1717689556844897
1	1	0	0	0	0	2	33924,73	0,300000012	3,92068958	0,00083383362378842304	0,3001801040047033	0,00117691304	-0,36459851903015814	0,013603660952937642	0,19094706447951827
1	1	0	0	0	0	2	34154,73	0,300000012	3,93089581	0,00083383625244597606	0,30018105032142054	0,00117998046	-0,34542039793909677	0,012888099469772096	0,21012518557057942
1	1	0	0	0	0	2	34384,73	0,300000012	3,94461203	0,00083381718759569843	0,3001741869753335	0,00118407072	-0,32624239151110682	0,012172542264839914	0,2293031919985695
1	1	0	0	0	0	2	34614,73	0,300000012	3,95184231	0,00083382248705128832	0,30017609477934227	0,00118624861	-0,30706457706508474	0,011456992223013069	0,24848100644459155
1	1	0	0	0	0	2	34844,73	0,300000012	3,96151423	0,00083382237279249562	0,30017605364617696	0,00118915166	-0,28788651930648019	0,010741433102866638	0,26765906420319613
1	1	0	0	0	0	2	35074,73	0,300000012	3,97009897	0,0008338266423493623	0,30017759068664614	0,0011917348	-0,26870842538007533	0,010025872633250952	0,28683715812960099
1	1	0	0	0	0	2	35304,73	0,300000012	3,9828043	0,00083383205377889997	0,30017953880127603	0,00119555637	-0,24953029963072899	0,0093103109762785306	0,30601528387894733
1	1	0	0	0	0	2	35534,73	0,300000012	3,98961473	0,00083382794495092506	0,30017805962320781	0,0011975948	-0,23035218691407738	0,0085947498055734733	0,32519339659559885
1	1	0	0	0	0	2	35764,73	0,300000012	3,99886703	0,00083381730240914547	0,30017422830817434	0,00120035687	-0,21117411200025283	0,0078791900453427187	0,34437147150942355
1	1	0	0	0	0	2	35994,73	0,300000012	4,00937843	0,00083382249173356429	0,3001760964649616	0,00120351953	-0,19199617106790282	0,007163635284140919	0,36354941244177357
1	1	0	0	0	0	2	36224,73	0,300000012	4,02076769	0,00083382732544839386	0,30017783660229702	0,0012069454	-0,17281815199841325	0,0064480776075373862	0,38272743151126298
1	1	0	0	0	0	2	36454,73	0,300000012	4,03021049	0,00083382919645971725	0,30017851016637216	0,00120978255	-0,15364020893991091	0,0057325227670059866	0,40190537456976525
1	1	0	0	0	0	2	36684,73	0,300000012	4,04942083	0,00083381498055160038	0,30017339243945965	0,00121552835	-0,13446231883216339	0,005016969902138441	0,42108326467751277
1	1	0	0	0	0	2	36914,73	0,300000012	4,05964613	0,00083383465566072205	0,30018047547873024	0,00121862651	-0,11528429747025272	0,0043014121400015949	0,44026128603942342
1	1	0	0	0	0	2	37144,73	0,300000012	4,07097816	0,00083382807597186829	0,30017810679074733	0,0012220185	-0,096105975224962854	0,0035858431515013286	0,45943960828471334
1	1	0	0	0	0	2	37374,73	0,300000012	4,09154272	0,00083382152646614438	0,30017574896869107	0,00122818188	-0,076927909140652454	0,0028702837207116192	0,47861767436902374
1	1	0	0	0	0	2	37604,73	0,300000012	4,1143589	0,00083383166825936896	0,30017940001424512	0,00123504584	-0,057749910812678618	0,0021547268180019261	0,49779567269699744
1	1	0	0	0	0	2	37834,73	0,300000012	4,14301252	0,00083383640437324838	0,30018110501523853	0,00124365406	-0,038571649136257856	0,0014391600894076027	0,5169739343734183
1	1	0	0	0	0	2	38064,73	0,300000012	4,17296362	0,00083381715766754406	0,30017417620119789	0,00125261594	-0,01939364115488465	0,00072360282651659994	0,53615194235479136
1	1	0	0	0	0	2	38272,17	0,300000012	4,20014334	0,00062075803424583539	0,30018119430008256	0,00126080401	-0,0020962774395042208	7,8214929742895782E-005	0,55344930607017184

File: LiCoO2 vs Li 300µm GCPL_02_GCPL_C04_loop3.txt
EC-Lab ASCII FILE
Nb header lines : 3
mode	ox/red	error	control changes	Ns changes	counter inc.	Ns	time/s	control/V/mA	Ewe/V	dq/mA.h	<I>/mA	P/W	(Q-Qo)/mA.h	x	Capacity/mA.h
1	0	0	1	1	0	1	38272,22	-0,300000012	4,18656063	0	0	0	0	0	0
1	0	0	1	0	0	1	38492,22	-0,300000012	4,1024313	-0,00083288735522164237	-0,29983944732129677	0,00123007072	-0,018319573593629741	0,00068352792170698445	0,018319573593629741
1	0	0	1	0	0	1	38712,22	-0,300000012	4,0658226	-0,00083289213246603802	-0,29984116712927597	0,00121910102	-0,036643236678693043	0,0013672084278377349	0,036643236678693043
1	0	0	1	0	0	1	38932,22	-0,300000012	4,04039288	-0,00083289323574304576	-0,29984156430899808	0,00121147768	-0,054966898729658797	0,0020508888953849152	0,054966898729658797
1	0	0	1	0	0	1	39152,22	-0,300000012	4,00971699	-0,00083289744560254938	-0,29984307985841651	0,00120228587	-0,073290650441280691	0,0027345727082917264	0,073290650441280691
1	0	0	1	0	0	1	39372,22	-0,300000012	3,98800755	-0,00083290949581894605	-0,29984741793631123	0,00119579374	-0,091614654886606694	0,0034182659510328416	0,091614654886606694
1	0	0	1	0	0	1	39592,22	-0,300000012	3,97722888	-0,00083289499434000909	-0,29984219740390368	0,00119254109	-0,10993866050907971	0,0041019592376948954	0,10993866050907971
1	0	0	1	0	0	1	39812,22	-0,300000012	3,96912122	-0,00083290752286381184	-0,29984670767246426	0,00119012792	-0,12826247938050331	0,0047856455564242054	0,12826247938050331
1	0	0	1	0	0	1	40032,22	-0,300000012	3,94899511	-0,00083291562490496371	-0,29984962440727347	0,00118410471	-0,1465865600618687	0,0054693416436344506	0,1465865600618687
1	0	0	1	0	0	1	40252,22	-0,300000012	3,92392802	-0,00083292494714756813	-0,29985298041460486	0,00117660151	-0,16491070256061354	0,0061530400373342374	0,16491070256061354
1	0	0	1	0	0	1	40472,22	-0,300000012	3,91074586	-0,00083291686475939226	-0,29985007075486694	0,00117263745	-0,18323492029082611	0,0068367412380212352	0,18323492029082611
1	0	0	1	0	0	1	40692,22	-0,300000012	3,89483571	-0,00083291378286315328	-0,29984896127222298	0,00116786244	-0,20155901511313683	0,0075204378528491648	0,20155901511313683
1	0	0	1	0	0	1	40912,22	-0,300000012	3,8821876	-0,00083291161042948557	-0,29984817919610406	0,00116406684	-0,21988318500030538	0,008204137268447863	0,21988318500030538
1	0	0	1	0	0	1	41132,22	-0,300000012	3,8717525	-0,00083292639674743027	-0,29985350227055418	0,00116095855	-0,23820734091055389	0,0088878361625488858	0,23820734091055389
1	0	0	1	0	0	1	41352,22	-0,300000012	3,86179423	-0,00083292928112215462	-0,29985454064545306	0,00115797657	-0,25653171103180944	0,0095715430491505882	0,25653171103180944
1	0	0	1	0	0	1	41572,22	-0,300000012	3,85526991	-0,0008329169299668736	-0,29985009422956019	0,0011560031	-0,27485595534985264	0,010255245241865293	0,27485595534985264
1	0	0	1	0	0	1	41792,22	-0,300000012	3,85334325	-0,0008329184022876951	-0,29985062426505491	0,00115542742	-0,29318001375829331	0,010938940498042773	0,29318001375829331
1	0	0	1	0	0	1	42012,22	-0,300000012	3,84832597	-0,00083290296152399642	-0,29984506559013376	0,00115390157	-0,31150411773632954	0,011622637454483128	0,31150411773632954
1	0	0	1	0	0	1	42232,22	-0,300000012	3,84464407	-0,00083291028494636224	-0,29984770202218054	0,00115280773	-0,32982830774117498	0,012306337620699402	0,32982830774117498
1	0	0	1	0	0	1	42452,22	-0,300000012	3,84088588	-0,00083292272862295309	-0,2998521817457449	0,00115169806	-0,34815241061052013	0,012990034535773002	0,34815241061052013
1	0	0	1	0	0	1	42672,22	-0,300000012	3,82734132	-0,00083291185571584435	-0,29984826749919302	0,00114762166	-0,36647669555037875	0,013673738244142262	0,36647669555037875
1	0	0	1	0	0	1	42892,22	-0,300000012	3,81433082	-0,00083291149591737318	-0,29984813797174368	0,00114372	-0,3848009764804409	0,014357441802900618	0,3848009764804409
1	0	0	1	0	0	1	43112,22	-0,300000012	3,80305648	-0,00083290819562309312	-0,29984694986580506	0,00114033488	-0,40312506343611578	0,015041138124213789	0,40312506343611578
1	0	0	1	0	0	1	43332,22	-0,300000012	3,79044652	-0,00083291009040342438	-0,29984763198672301	0,00113655638	-0,42144923580726976	0,015724837632493325	0,42144923580726976
1	0	0	1	0	0	1	43552,22	-0,300000012	3,77886677	-0,00083291005135575936	-0,29984761792956365	0,00113308418	-0,43977334451666803	0,016408534765467162	0,43977334451666803
1	0	0	1	0	0	1	43772,22	-0,300000012	3,7538569	-0,0008329142812738816	-0,29984914070008486	0,00112559076	-0,45809755699400928	0,017092235770162467	0,45809755699400928
1	0	0	1	0	0	1	43992,22	-0,300000012	3,69700766	-0,00083291701866851917	-0,29985012616215251	0,00110854825	-0,47642167032101587	0,017775933075425475	0,47642167032101587
1	0	0	1	0	0	1	44212,22	-0,300000012	3,59465981	-0,00083290672271284787	-0,29984641961811776	0,00107784593	-0,49474582171057325	0,018459631800853434	0,49474582171057325
1	0	0	1	0	0	1	44432,22	-0,300000012	3,35764766	-0,00083292155240310566	-0,29985175830660058	0,00100679661	-0,51306977130398822	0,019143322996996	0,51306977130398822
1	0	0	1	0	0	1	44652,22	-0,300000012	2,53218794	-0,00083290603466828672	-0,29984617192207616	0,000759266841	-0,53139385187045088	0,019827019079919069	0,53139385187045088
1	1	0	0	0	0	2	44857,78	0,300000012	3,88657999	0,00083383835096326131	0,30018180578764192	0,00116668059	-0,53184746448360211	0,019843943976404387	0,0083383548566699046
1	1	0	0	0	0	2	45077,78	0,300000012	3,91082692	0,00083382425123287565	0,30017672988471251	0,00117393921	-0,51350329203585587	0,019159498238376806	0,026682527304415898
1	1	0	0	0	0	2	45297,78	0,300000012	3,91008282	0,00083383144334455334	0,30017931904491162	0,00117372605	-0,49515914194676915	0,01847505333458087	0,045026677393502643
1	1	0	0	0	0	2	45517,78	0,300000012	3,91439414	0,0008338350090202359	0,30018060268815494	0,00117502525	-0,47681482125121651	0,01779060206522831	0,063370998089055194
1	1	0	0	0	0	2	45737,78	0,300000012	3,91937327	0,00083382425835397504	0,30017673244830829	0,00117650465	-0,45847061212899584	0,017106154958826781	0,081715207211275891
1	1	0	0	0	0	2	45957,78	0,300000012	3,93204045	0,00083383105254835546	0,3001791783582807	0,00118031667	-0,44012629851115526	0,016421703953553171	0,1000595208291163
1	1	0	0	0	0	2	46177,78	0,300000012	3,93778253	0,00083383417187962266	0,30018030131753478	0,00118204474	-0,42178223311198701	0,015737262209651962	0,11840358622828458
1	1	0	0	0	0	2	46397,78	0,300000012	3,94344854	0,00083382919811871322	0,30017851076361069	0,00118373847	-0,40343796477491597	0,015052812893864749	0,13674785456535546
1	1	0	0	0	0	2	46617,78	0,300000012	3,9493432	0,00083382533593972518	0,3001771203791776	0,00118550251	-0,38509385461801069	0,014368369479992192	0,15509196472226074
1	1	0	0	0	0	2	46837,78	0,300000012	3,95348287	0,00083383883891503014	0,30018198145027834	0,00118676433	-0,36674962882917901	0,013683921751736994	0,17343619051109248
1	1	0	0	0	0	2	47057,78	0,300000012	3,95996904	0,00083385049791634074	0,3001861786907424	0,00118872803	-0,34840513813974573	0,012999464139684189	0,19178068120052576
1	1	0	0	0	0	2	47277,78	0,300000012	3,96737099	0,00083384216743210957	0,30018317971642464	0,00119093806	-0,33006063627245798	0,012315006110570603	0,21012518306781344
1	1	0	0	0	0	2	47497,78	0,300000012	3,96939301	0,00083383256292012006	0,30017972209211488	0,00119153131	-0,3117163456685289	0,011630555963976978	0,22846947367174256
1	1	0	0	0	0	2	47717,78	0,300000012	3,97542143	0,00083382737116515635	0,30017785306033146	0,00119333342	-0,29337211886351584	0,010946108197806685	0,24681370047675555
1	1	0	0	0	0	2	47937,78	0,300000012	3,97946572	0,00083382242283887334	0,30017607166287283	0,00119454041	-0,27502792090027968	0,010261661507761867	0,26515789843999178
1	1	0	0	0	0	2	48157,78	0,300000012	3,99192309	0,0008338384157402647	0,30018182910736307	0,00119830272	-0,25668361924990112	0,0095772109490103603	0,2835022000903703
1	1	0	0	0	0	2	48377,78	0,300000012	3,99684477	0,00083384269361860224	0,30018336914356166	0,00119978632	-0,23833937773035562	0,008892762633821079	0,30184644160991578
1	1	0	0	0	0	2	48597,78	0,300000012	4,00907326	0,00083383512440820544	0,30018064422782394	0,00120344618	-0,21999501527593792	0,0082083098063891187	0,32019080406433344
1	1	0	0	0	0	2	48817,78	0,300000012	4,00844383	0,00083382594204280102	0,30017733857628454	0,00120324397	-0,20165073066138326	0,007523859883267104	0,338535088678888
1	1	0	0	0	0	2	49037,78	0,300000012	4,01660872	0,000833827212833696	0,30017779606100582	0,00120569672	-0,18330647581858531	0,0068394110709693619	0,35687934352168589
1	1	0	0	0	0	2	49257,78	0,300000012	4,02492619	0,00083383249421583283	0,30017969735857158	0,00120820117	-0,1649622436155769	0,0061549631033926054	0,37522357572469427
1	1	0	0	0	0	2	49477,78	0,300000012	4,03763151	0,00083383318598734003	0,30017994639631373	0,00121201598	-0,14661800903171558	0,0054705150469830266	0,39356781030855558
1	1	0	0	0	0	2	49697,78	0,300000012	4,04802847	0,00083383269802398144	0,3001797707295049	0,00121513626	-0,1282736104027141	0,0047860608698287078	0,41191220893755706
1	1	0	0	0	0	2	49917,78	0,300000012	4,06344271	0,00083383491758505498	0,30018056977148992	0,00121976656	-0,10992940836043579	0,004101614027589344	0,43025641097983533
1	1	0	0	0	0	2	50137,78	0,300000012	4,08192825	0,00083383390644854963	0,30018020576234867	0,0012253141	-0,091585006006293069	0,0034171597114449971	0,44860081333397792
1	1	0	0	0	0	2	50357,78	0,300000012	4,09993696	0,00083382403775056192	0,30017665303107968	0,00123070541	-0,073240706712266726	0,0027327092406121571	0,46694511262800435
1	1	0	0	0	0	2	50577,78	0,300000012	4,13049793	0,00083381754111912512	0,30017431424376678	0,00123986939	-0,054896449797518656	0,0020482603510071699	0,48528936954275238
1	1	0	0	0	0	2	50797,78	0,300000012	4,1655426	0,00083381464442776307	0,3001732714348784	0,00125038461	-0,036552328987514925	0,0013638165396531886	0,50363349035275629
1	1	0	0	0	0	2	51017,78	0,300000012	4,18822479	0,00083382245576547251	0,30017608351644858	0,00125720492	-0,018208216799043235	0,0006793730499801591	0,52197760254122784
1	1	0	0	0	0	2	51118,43	0,300000012	4,19978094	5,4449608706765702E-005	0,30018160949089587	0,00126069703	-0,0098154442370808282	0,00036622742149061914	0,53037037510319027