Folder: thesis/Experimentelles/Rohdaten/Batteriemessungen/AlteZelle/Studenten_Batterietests/ASS Batterie 02/ECLab-Export

Note: README.md
# thesis

Zusammenfassung
---------------
Es konnten die Festkörperelektrolytkeramiken LATP, LAGP, LTO und LLTO hergestellt,
mit XRD und MAS-NMR charakterisiert und zu Elektrodensuspensionen weiterverarbeitet
werden. Aus den Daten der MAS-NMR konnten dabei gegenüber der XRD keine Mehrinfor-
mationen gewonnen werden. Die mit den Suspensionen gegossenen und gestanzten Elektro-
denproben wurden mittels REM und EDX untersucht und als Kathode in Testzellen verbaut.
Mit diesen wurden Ladekennlinien erstellt und eine zyklischer Voltametrie durchgeführt. Aus
den Ladekennlinien konnten die Kapazitäten und der Grad der Lithiuminsertation in die
Materialen bestimmt werden. Die zyklische Voltametrie lieferte nicht-reaktive Spannungsbe-
reiche der Materialien.

Für ein noch besseres Verständnis der Lithiumbewegung und -insertation wurde eine in-situ
NMR-Testzelle konzipiert, konstruiert, gebaut und getestet. Für den Test kam dabei eine
Lithium-Schwefel-Zelle zum Einsatz, für welche ein Di?usionskoe?zient sowie ein Spektrum
vor und nach einer 90 minütigen Ladezeit aufgenommen worden ist.

Abstract
--------
The all solid state electrolyte ceramics LATP, LAGP, LTO, and LLTO were successfully
synthesized and characterized by using XRD. MAS-NMR spectroscopy were not able to ge-
nerate additional information. All powders were processed to electrode slurries, casted on
aluminum foils and punched to electrode samples. Those samples were studied by SEM and
EDX and then build into battery test cells. The cells were analyzed by measuring the charge
curves as well as cyclic voltammetry. With the charge curves capacities and the amount of
lithium insertion were calculated. The cyclic voltammetry was able to detect non-reactive
voltage regions.

To be able to better understand lithium movement and insertion a novel in-situ NMR sample
cell was designed, constructed, built and tested. Therefore, a lithium-sulfur-cell was built into
the in-situ sample cell. With this setting a diffusion coeffcient as well as a NMR spectrum
before and after 90 minutes of charging were measured.

File: LiNiMnO-LATP-LTO_02_PEIS_C01.mpt
EC-Lab ASCII FILE
Nb header lines : 68

Potentio Electrochemical Impedance Spectroscopy

Run on channel : 1 (SN 6985)
Grouped channel(s) : 1
User :
CE vs. WE compliance from -10 V to 10 V
Electrode connection : standard
Ewe ctrl range : min = -2,50 V, max = 2,50 V
Acquisition started on : 01.29.2015 17:18:52
Saved on :
	File : LiNiMnO-LATP-LTO_02_PEIS_C01.mpr
	Directory : C:\Hupfer\Studenten Batterietests\ASS Batterie 02\
	Host : 192.168.0.2
Device : VMP3 (SN 0324)
Address : 192.168.0.1
EC-Lab for windows v10.33 (software)
Internet server v10.33 (firmware)
Command interpretor v10.32 (firmware)
Electrode material :
Initial state :
Electrolyte :
Comments :
Mass of active material : 0,001 mg
 at x = 0,000
Molecular weight of active material (at x = 0) : 0,001 g/mol
Atomic weight of intercalated ion : 0,001 g/mol
Acquisition started at : xo = 0,000
Number of e- transfered per intercalated ion : 1
for DX = 1, DQ = 26,801 mA.h
Battery capacity : 0,000 A.h
Electrode surface area : 0,001 cm²
Characteristic mass : 0,001 g
Multi Sine          0
E (V)               0,0000
vs.                 Eoc
tE (h:m:s)          0:00:0,0000
record              0
dI                  0,000
unit dI             mA
dt (s)              0,000
fi                  1,000
unit fi             MHz
ff                  1,000
unit ff             Hz
Sel Nd              1
Nd                  6
Nt                  51
Log                 1
Va (mV)             10,0
pw                  0,10
Na                  1
E range min (V)     -2,500
E range max (V)     2,500
I Range             Auto
Bandwidth           5
corr                0
nc cycles           0
goto Ns'            0
nr cycles           0
inc. cycle          0

Number of loops : 1
Loop 0 from point number 0 to 36

freq/Hz	Re(Z)/Ohm	-Im(Z)/Ohm	|Z|/Ohm	Phase(Z)/deg	time/s	<Ewe>/V	<I>/mA	Cs/µF	Cp/µF	cycle number	I Range	|Ewe|/V	|I|/A	Re(Y)/Ohm-1	Im(Y)/Ohm-1	|Y|/Ohm-1	Phase(Y)/deg
1000024,25	-1613,37476	3908,35986	4228,26855	-112,430885	602,9612	0,137886077	0,00119755522	4,07206826E-005	3,47919704E-005	1	12	0,00430426328	1,01797298E-006	-9,02423053E-005	0,000218609697	0,000236503431	112,430885
681286,5	1506,58533	4908,81152	5134,80566	-72,9379883	603,4072	0,140129119	1,71539905E-005	4,75898087E-005	4,34929316E-005	1	13	0,00959451497	1,86852537E-006	5,71407327E-005	0,000186177989	0,000194749344	72,9379883
464160,125	1775,22253	7896,1123	8093,20752	-77,3293076	603,7212	0,140329644	1,36538292E-005	4,34249159E-005	4,13356029E-005	1	13	0,0101051508	1,2485965E-006	2,71026256E-005	0,000120551318	0,0001235604	77,3293076
316223,094	2582,91772	11610,3086	11894,1465	-77,4577942	604,0352	0,140386805	1,52696575E-005	4,33493733E-005	4,13051057E-005	1	13	0,0101235881	8,51140328E-007	1,82576132E-005	8,20686328E-005	8,40749708E-005	77,4577942
215441,859	3679,14966	16897,6191	17293,5156	-77,7165985	604,2472	0,140404612	1,55100679E-005	4,37184281E-005	4,17396659E-005	1	13	0,0107557867	6,21954882E-007	1,23021446E-005	5,65013652E-005	5,7825142E-005	77,7165985
146777,328	5936,9585	24150,6953	24869,7324	-76,188858	604,4592	0,140415147	1,57952127E-005	4,48984683E-005	4,23397796E-005	1	13	0,0107158273	4,30878259E-007	9,59890986E-006	3,90469795E-005	4,02095211E-005	76,188858
100024,406	9650,50684	32904,3047	34290,3125	-73,6541061	604,6722	0,140151769	1,30834751E-005	4,8357233E-005	4,45270562E-005	1	13	0,0104659125	3,05214854E-007	8,20743207E-006	2,79840006E-005	2,91627548E-005	73,6541061
68127,4297	17462,8242	45279,8242	48530,5352	-68,910141	604,8842	0,140421003	1,62480956E-005	5,15933098E-005	4,49130675E-005	1	13	0,0105271349	2,16917755E-007	7,41454141E-006	1,92253647E-005	2,06055829E-005	68,910141
46411,125	31428,3457	61495,4883	69061,1016	-62,9299011	605,3302	0,140469804	2,13480121E-006	5,57641142E-005	4,42154742E-005	1	14	0,00982682873	1,4229181E-007	6,58953104E-006	1,28936608E-005	1,44799315E-005	62,9299011
31628,4121	47715,5898	74771,7813	88699,4766	-57,456028	605,5422	0,140468881	1,86628222E-006	6,72984461E-005	4,78231705E-005	1	14	0,0101757143	1,14721246E-007	6,06482399E-006	9,50376307E-006	1,12740236E-005	57,456028
21545,4082	69391,2344	89958,4609	113611,914	-52,3544922	605,7542	0,140477851	2,45195292E-006	8,21151625E-005	5,14825042E-005	1	14	0,0100848107	8,87654323E-008	5,37597043E-006	6,96938196E-006	8,80189418E-006	52,3544922
14672,8496	96348,3281	100195,625	139004,188	-46,1214066	605,8643	0,140463129	1,84354758E-006	0,000108257227	5,62469068E-005	1	14	0,0108436495	7,80095135E-008	4,98641521E-006	5,18552815E-006	7,19402806E-006	46,1214066
10015,2705	122862,063	112306,648	166456,813	-42,4300385	606,1174	0,140472621	2,22107519E-006	0,000141498545	6,44109605E-005	1	14	0,0101915943	6,12266575E-008	4,43419367E-006	4,05324045E-006	6,00756448E-006	42,4300385
6856,00244	151317,313	118250,023	192041,656	-38,0065765	606,3017	0,140481025	3,18446132E-006	0,000196312481	7,44319696E-005	1	14	0,0103609897	5,39517835E-008	4,10296434E-006	3,20634558E-006	5,20720369E-006	38,0065765
4642,42725	183695,219	127790,359	223772,891	-34,8249893	606,5379	0,140477896	2,61472132E-006	0,000268272997	8,74899488E-005	1	14	0,00976552255	4,36403305E-008	3,66845256E-006	2,55201462E-006	4,46881677E-006	34,8249893
3160,05566	213828,625	136593,688	253733,156	-32,5704346	606,7738	0,140477926	2,18548348E-006	0,000368718378	0,000106856663	1	14	0,0100977914	3,97968947E-008	3,32132527E-006	2,12166196E-006	3,94114841E-006	32,5704346
2152,93286	251364,922	149743,391	292587,438	-30,7831497	607,0104	0,140472293	2,05234232E-006	0,000493675936	0,000129308159	1	14	0,0102380253	3,49913343E-008	2,93625203E-006	1,74918728E-006	3,41778173E-006	30,7831497
1468,58972	286648,469	150604,688	323804,125	-27,717371	607,2464	0,140475675	2,19694334E-006	0,000719583477	0,000155665868	1	14	0,0102935722	3,17895044E-008	2,73391402E-006	1,43639454E-006	3,0882868E-006	27,717371
999,040405	333378,719	150892,453	365937,031	-24,3522549	607,4824	0,140478835	2,18194282E-006	0,00105577067	0,000179511335	1	14	0,010317672	2,81952115E-008	2,48957463E-006	1,12682062E-006	2,73271053E-006	24,3522549
681,089661	360935,063	160465,25	394997,75	-23,9690723	607,7179	0,140472502	2,51186066E-006	0,00145624636	0,000240329784	1	14	0,0103242537	2,61375011E-008	2,31334184E-006	1,02847025E-006	2,5316599E-006	23,9690723
464,553894	415852,281	156185,625	444215,125	-20,5851536	607,9544	0,14047204	2,14607189E-006	0,00219352683	0,000271167984	1	14	0,0103260763	2,32456649E-008	2,10742633E-006	7,91506352E-007	2,2511615E-006	20,5851536
316,315765	445756,219	169950,047	477055,156	-20,8699646	608,1893	0,140474916	2,1704825E-006	0,00296058808	0,000375736505	1	14	0,0103251506	2,16435154E-008	1,95866528E-006	7,46765238E-007	2,09619361E-006	20,8699646
215,344498	496718,719	154830,609	520290,313	-17,3126125	608,4259	0,140476182	2,01358307E-006	0,00477341842	0,000422718906	1	14	0,0103204167	1,98358805E-008	1,83492796E-006	5,71959561E-007	1,92200378E-006	17,3126125
146,737289	515938,563	175272,813	544897,375	-18,7634697	608,6596	0,140476227	2,62282697E-006	0,0061882101	0,000640272337	1	14	0,0103269806	1,89521572E-008	1,73767501E-006	5,90316802E-007	1,83520797E-006	18,7634697
99,9040375	578844	176545,344	605168,25	-16,9615173	608,8954	0,140468925	2,1141143E-006	0,00902362075	0,000767964404	1	14	0,0103278244	1,70660375E-008	1,58055377E-006	4,82063228E-007	1,65243307E-006	16,9615173
68,1888962	600220,5	205849,906	634538,313	-18,9297695	609,1370	0,140473291	2,2829397E-006	0,011338504	0,00119327742	1	14	0,0103234211	1,62691851E-008	1,49071684E-006	5,11251926E-007	1,575949E-006	18,9297695
46,3802681	582451,875	97362,3125	590533,313	-9,48978996	609,3666	0,140470877	2,21427285E-006	0,0352448747	0,000958051649	1	14	0,010326758	1,74871726E-008	1,67021062E-006	2,79191454E-007	1,69338455E-006	9,48978996
31,5869217	663514	193874,234	691258,313	-16,2880001	609,5912	0,140470669	1,88081458E-006	0,0259891897	0,00204433571	1	14	0,0103286505	1,49418096E-008	1,38857513E-006	4,05732123E-007	1,44663727E-006	16,2880001
21,5220375	747685,75	199104,594	773741,938	-14,9115067	609,8126	0,140467152	2,22610538E-006	0,0371411629	0,00245938078	1	14	0,0103322705	1,33536391E-008	1,24889766E-006	3,32574558E-007	1,29242062E-006	14,9115067
14,6851501	799175	200682,016	823986,625	-14,0961647	610,0539	0,140472323	2,44067769E-006	0,0540049188	0,00320339063	1	14	0,0103259413	1,25316859E-008	1,17706804E-006	2,9557529E-007	1,21361188E-006	14,0961647
9,9904108	923970,563	212810,359	948161,313	-12,9702625	610,2904	0,140471995	2,02783804E-006	0,0748590007	0,00377107435	1	14	0,0103271743	1,08917906E-008	1,02776471E-006	2,36716389E-007	1,05467291E-006	12,9702625
6,81718969	882665,563	228785,797	911834,125	-14,5312052	610,4676	0,140475824	2,15809109E-006	0,102043577	0,00642409734	1	14	0,010325701	1,13240999E-008	1,06160871E-006	2,7516765E-007	1,09669065E-006	14,5312052
4,63925123	994330,813	177228,078	1010001,75	-10,1061869	610,7213	0,14047353	2,44841067E-006	0,193570748	0,00596019579	1	14	0,0103294114	1,02271223E-008	9,74735144E-007	1,73735373E-007	9,90097305E-007	10,1061869
3,16039586	1034492,44	193461,047	1052426,63	-10,5925646	611,0853	0,140477821	2,20337188E-006	0,260306567	0,00879606698	1	14	0,0103215026	9,80733716E-009	9,33993078E-007	1,7466661E-007	9,50184983E-007	10,5925646
2,1522038	1115933,25	214519,453	1136365,13	-10,8814125	611,6113	0,140474916	2,16099761E-006	0,344722837	0,0122847864	1	14	0,0103268521	9,08761777E-009	8,64176457E-007	1,66123428E-007	8,79998822E-007	10,8814125
1,46630979	1163261,63	192997,328	1179163,13	-9,42016315	612,3763	0,140475065	2,42248575E-006	0,562397182	0,0150659988	1	14	0,0103254113	8,75655903E-009	8,36622689E-007	1,38804495E-007	8,48059074E-007	9,42016315
0,998529792	1201342	193017,813	1216749,13	-9,12761879	613,4927	0,140473992	2,34803497E-006	0,825774968	0,0207804237	1	14	0,0103256451	8,48625614E-009	8,11455209E-007	1,30375284E-007	8,21862102E-007	9,12761879

File: LiNiMnO-LATP-LTO_06_GCPL_C01.mpt
EC-Lab ASCII FILE
Nb header lines : 81

Galvanostatic Cycling with Potential Limitation

Run on channel : 1 (SN 6985)
Grouped channel(s) : 1
User :
CE vs. WE compliance from -10 V to 10 V
Electrode connection : standard
Ewe ctrl range : min = -2,50 V, max = 2,50 V
Acquisition started on : 01.29.2015 17:18:52
Saved on :
	File : LiNiMnO-LATP-LTO_06_GCPL_C01.mpr
	Directory : C:\Hupfer\Studenten Batterietests\ASS Batterie 02\
	Host : 192.168.0.2
Device : VMP3 (SN 0324)
Address : 192.168.0.1
EC-Lab for windows v10.33 (software)
Internet server v10.33 (firmware)
Command interpretor v10.32 (firmware)
Electrode material :
Initial state :
Electrolyte :
Comments :
Mass of active material : 0,001 mg
 at x = 0,000
Molecular weight of active material (at x = 0) : 0,001 g/mol
Atomic weight of intercalated ion : 0,001 g/mol
Acquisition started at : xo = 0,000
Number of e- transfered per intercalated ion : 1
for DX = 1, DQ = 26,801 mA.h
Battery capacity : 0,000 A.h
Electrode surface area : 0,001 cm²
Characteristic mass : 0,001 g
Ns                  0                   1                   2
Set I/C             I                   I                   I
Is                  0,000               -300,000            300,000
unit Is             mA                  µA                  µA
vs.                 <None>              <None>              <None>
N                   1                   1                   1
I sign              > 0                 > 0                 > 0
t1 (h:m:s)          0:00:0,0000         10:00:0,0000        10:00:0,0000
I Range             1 mA                1 mA                1 mA
Bandwidth           5                   5                   5
dE1 (mV)            0,00                0,00                0,00
dt1 (s)             0,0000              10,0000             10,0000
EM (V)              0,000               0,000               2,000
tM (h:m:s)          0:00:0,0000         0:00:0,0000         0:00:0,0000
Im                  0,000               0,000               0,000
unit Im             mA                  mA                  mA
E range min (V)     -2,500              -2,500              -2,500
E range max (V)     2,500               2,500               2,500
dq                  0,000               1,000               1,000
unit dq             mA.h                mA.h                mA.h
dtq (s)             0,0000              120,0000            120,0000
dQM                 0,000               0,000               0,000
unit dQM            mA.h                mA.h                mA.h
dxM                 0,000               0,000               0,000
tR (h:m:s)          0:00:0,0000         0:00:0,0000         0:00:0,0000
dER/dt (mV/h)       0,0                 0,1                 0,1
dER (mV)            0,00                5,00                5,00
dtR (s)             1,0000              120,0000            120,0000
EL (V)              pass                4,200               4,200
goto Ns'            0                   0                   0
nc cycles           0                   0                   0

Number of loops : 11
Loop 0 from point number 0 to 1
Loop 1 from point number 2 to 5
Loop 2 from point number 6 to 9
Loop 3 from point number 10 to 13
Loop 4 from point number 14 to 17
Loop 5 from point number 18 to 21
Loop 6 from point number 22 to 25
Loop 7 from point number 26 to 29
Loop 8 from point number 30 to 33
Loop 9 from point number 34 to 37
Loop 10 from point number 38 to 41

mode	ox/red	error	control changes	Ns changes	counter inc.	Ns	time/s	control/V/mA	Ewe/V	dq/mA.h	<I>/mA	P/W	(Q-Qo)/mA.h	x	Capacity/mA.h
1	1	0	0	1	0	2	6214,6971	0,300000012	-0,0704288706	0	0	0	0	0	0
1	1	0	0	0	0	2	6214,7473	0,300000012	10,5137119	5,6333536324220608E-009	0,0004039855243922873	4,24738755E-006	5,6333536324220608E-009	-2,1018799815018045E-010	5,6333536324220608E-009
1	0	0	1	1	0	1	6214,7979	-0,300000012	0,131264403	0	0	0	5,6333536324220608E-009	-2,1018799815018045E-010	0
1	0	0	1	0	0	1	6214,8477	-0,300000012	-4,92206144	-1,0931521464954128E-009	-7,9023047691798835E-005	3,88956295E-007	4,5402014859266477E-009	-1,6940102180574403E-010	1,0931521464954128E-009
1	1	0	0	1	0	2	6214,8483	0,300000012	10,5137119	2,7847585992680656E-009	0,01670855201770192	0,000175668902	7,3249600851947136E-009	-2,7330410929219315E-010	2,7847585992680656E-009
1	1	0	0	0	0	2	6214,8489	0,300000012	10,5137119	3,6821612674329018E-009	0,022092967626887731	0,000232279097	1,1007121352627616E-008	-4,1069049689859213E-010	6,4669198667009677E-009
1	0	0	1	1	0	1	6214,8995	-0,300000012	0,18226923	0	0	0	1,1007121352627616E-008	-4,1069049689859213E-010	0
1	0	0	1	0	0	1	6214,9493	-0,300000012	-4,95550346	-1,2217563602866397E-009	-8,831973795799049E-005	4,37668774E-007	9,7853649923409766E-009	-3,6510512442740058E-010	1,2217563602866397E-009
1	1	0	0	1	0	2	6214,9499	0,300000012	10,5137119	2,7967711082763142E-009	0,016780627073572182	0,000176426678	1,258213610061729E-008	-4,6945641477593766E-010	2,7967711082763142E-009
1	1	0	0	0	0	2	6214,9505	0,300000012	10,5137119	3,6931140348315238E-009	0,022158684231345766	0,000232970022	1,6275250135448816E-008	-6,0725146486013171E-010	6,4898851431078374E-009
1	0	0	1	1	0	1	6215,0011	-0,300000012	0,207290456	0	0	0	1,6275250135448816E-008	-6,0725146486013171E-010	0
1	0	0	1	0	0	1	6215,0509	-0,300000012	-4,98750162	-1,2281159247827925E-009	-8,8779465491555827E-005	4,42787723E-007	1,5047134210666022E-008	-5,6142880848706323E-010	1,2281159247827925E-009
1	1	0	0	1	0	2	6215,0515	0,300000012	10,5137119	2,7911179802483981E-009	0,016746708304547824	0,000176070069	1,7838252190914422E-008	-6,6556917302816717E-010	2,7911179802483981E-009
1	1	0	0	0	0	2	6215,0521	0,300000012	10,5137119	3,6920538793007533E-009	0,022152323298154723	0,000232903141	2,1530306070215178E-008	-8,0332466728411392E-010	6,483171859549152E-009
1	0	0	1	1	0	1	6215,1027	-0,300000012	0,221244603	0	0	0	2,1530306070215178E-008	-8,0332466728411392E-010	0
1	0	0	1	0	0	1	6215,1525	-0,300000012	-5,02110386	-1,238008582731709E-009	-8,949459739993079E-005	4,49361664E-007	2,0292297487483469E-008	-7,5713290254215142E-010	1,238008582731709E-009
1	1	0	0	1	0	2	6215,1531	0,300000012	10,5137119	2,782285420431031E-009	0,016693712944304845	0,000175512891	2,3074582907914499E-008	-8,609437124009664E-010	2,782285420431031E-009
1	1	0	0	0	0	2	6215,1537	0,300000012	10,5137119	3,6899340856406419E-009	0,022139604536181229	0,000232769424	2,6764516993555142E-008	-9,9862011430536141E-010	6,4722195060716736E-009
1	0	0	1	1	0	1	6215,2043	-0,300000012	0,232552275	0	0	0	2,6764516993555142E-008	-9,9862011430536141E-010	0
1	0	0	1	0	0	1	6215,2541	-0,300000012	-5,05382395	-1,2422482484705851E-009	-8,980107929043575E-005	4,53838851E-007	2,5522268745084557E-008	-9,5227016193439014E-010	1,2422482484705851E-009
1	1	0	0	1	0	2	6215,2547	0,300000012	10,5137119	2,7819319317738218E-009	0,016691591607483626	0,000175490582	2,8304200676858378E-008	-1,0560677826561342E-009	2,7819319317738218E-009
1	1	0	0	0	0	2	6215,2553	0,300000012	10,5137119	3,6888743440310157E-009	0,022133246086517053	0,000232702572	3,1993075020889395E-008	-1,1937046441762365E-009	6,4708062758048384E-009
1	0	0	1	1	0	1	6215,3059	-0,300000012	0,238005623	0	0	0	3,1993075020889395E-008	-1,1937046441762365E-009	0
1	0	0	1	0	0	1	6215,3557	-0,300000012	-5,08542156	-1,2503743758619141E-009	-9,0388510193309926E-005	4,59663681E-007	3,0742700645027482E-008	-1,1470514950666003E-009	1,2503743758619141E-009
1	1	0	0	1	0	2	6215,3563	0,300000012	10,5137119	2,7759256255295542E-009	0,016655553769981658	0,000175111694	3,3518626270557037E-008	-1,2506250124268061E-009	2,7759256255295542E-009
1	1	0	0	0	0	2	6215,3569	0,300000012	10,5137119	3,6789815252025926E-009	0,022073889173486624	0,000232078513	3,7197607795759629E-008	-1,3878927595753834E-009	6,4549071507321472E-009
1	0	0	1	1	0	1	6215,4075	-0,300000012	0,243619353	0	0	0	3,7197607795759629E-008	-1,3878927595753834E-009	0
1	0	0	1	0	0	1	6215,4573	-0,300000012	-5,1170187	-1,2585004216008302E-009	-9,0975935193599936E-005	4,65525574E-007	3,5939107374158797E-008	-1,3409364167736432E-009	1,2585004216008302E-009
1	1	0	0	1	0	2	6215,4579	0,300000012	10,5137119	2,7681530142823853E-009	0,016608918102451597	0,000174621382	3,8707260388441184E-008	-1,4442199275578304E-009	2,7681530142823853E-009
1	1	0	0	0	0	2	6215,4585	0,300000012	10,5137119	3,6906405455536314E-009	0,022143843832722336	0,000232813996	4,2397900933994816E-008	-1,5819226884314246E-009	6,4587935598360166E-009
1	0	0	1	1	0	1	6215,5091	-0,300000012	0,249313295	0	0	0	4,2397900933994816E-008	-1,5819226884314246E-009	0
1	0	0	1	0	0	1	6215,5589	-0,300000012	-5,14837551	-1,2708662414095467E-009	-9,1869849889395213E-005	4,72980474E-007	4,1127034692585267E-008	-1,5345049602666E-009	1,2708662414095467E-009
1	1	0	0	1	0	2	6215,5595	0,300000012	10,5137119	2,7625001966953277E-009	0,016575001196895027	0,000174264787	4,3889534889280595E-008	-1,6375775568263194E-009	2,7625001966953277E-009
1	1	0	0	0	0	2	6215,5601	0,300000012	10,5137119	3,6853410096632109E-009	0,022112046616576547	0,000232479695	4,7574875898943808E-008	-1,7750825848905402E-009	6,4478412063585395E-009
1	0	0	1	1	0	1	6215,6107	-0,300000012	0,25404489	0	0	0	4,7574875898943808E-008	-1,7750825848905402E-009	0
1	0	0	1	0	0	1	6215,6605	-0,300000012	-5,18045378	-1,2758125683629059E-009	-9,2227415697583629E-005	4,77779849E-007	4,6299063330580902E-008	-1,7274803026166787E-009	1,2758125683629059E-009
1	1	0	0	1	0	2	6215,6611	0,300000012	10,5137119	2,7596736326813696E-009	0,016558041812794173	0,000174086483	4,9058736963262278E-008	-1,8304474362726819E-009	2,7596736326813696E-009
1	1	0	0	0	0	2	6215,6617	0,300000012	10,5137119	3,690994034210841E-009	0,022145964764719171	0,00023283629	5,274973099747312E-008	-1,9681633862833472E-009	6,4506676668922112E-009
1	0	0	1	1	0	1	6215,7123	-0,300000012	0,259819001	0	0	0	5,274973099747312E-008	-1,9681633862833472E-009	0
1	0	0	1	0	0	1	6215,7621	-0,300000012	-5,21293354	-1,2917113611668656E-009	-9,3376726034682816E-005	4,8676668E-007	5,1458019636306253E-008	-1,9199678986738154E-009	1,2917113611668656E-009
1	1	0	0	1	0	2	6215,7627	0,300000012	10,5137119	2,7607335812515686E-009	0,016564401905961398	0,000174153349	5,4218753217557818E-008	-2,0229745804360886E-009	2,7607335812515686E-009
1	1	0	0	0	0	2	6215,7633	0,300000012	10,5137119	3,6924072644776768E-009	0,022154443609218406	0,000232925435	5,7911160482035494E-008	-2,1607432599681178E-009	6,4531408457292454E-009