Folder: thesis/Experimentelles/Rohdaten/Batteriemessungen/AlteZelle/Studenten_Batterietests/ASS Batterie 02/ECLab-Export (part 2)

File: LiNiMnO-LATP-LTO_08_PEIS_C01.mpt
EC-Lab ASCII FILE
Nb header lines : 68

Potentio Electrochemical Impedance Spectroscopy

Run on channel : 1 (SN 6985)
Grouped channel(s) : 1
User :
CE vs. WE compliance from -10 V to 10 V
Electrode connection : standard
Ewe ctrl range : min = -2,50 V, max = 2,50 V
Acquisition started on : 01.29.2015 17:18:52
Saved on :
	File : LiNiMnO-LATP-LTO_08_PEIS_C01.mpr
	Directory : C:\Hupfer\Studenten Batterietests\ASS Batterie 02\
	Host : 192.168.0.2
Device : VMP3 (SN 0324)
Address : 192.168.0.1
EC-Lab for windows v10.33 (software)
Internet server v10.33 (firmware)
Command interpretor v10.32 (firmware)
Electrode material :
Initial state :
Electrolyte :
Comments :
Mass of active material : 0,001 mg
 at x = 0,000
Molecular weight of active material (at x = 0) : 0,001 g/mol
Atomic weight of intercalated ion : 0,001 g/mol
Acquisition started at : xo = 0,000
Number of e- transfered per intercalated ion : 1
for DX = 1, DQ = 26,801 mA.h
Battery capacity : 0,000 A.h
Electrode surface area : 0,001 cm²
Characteristic mass : 0,001 g
Multi Sine          0
E (V)               0,0000
vs.                 Eoc
tE (h:m:s)          0:00:0,0000
record              0
dI                  0,000
unit dI             mA
dt (s)              0,000
fi                  1,000
unit fi             MHz
ff                  1,000
unit ff             Hz
Sel Nd              1
Nd                  6
Nt                  51
Log                 1
Va (mV)             10,0
pw                  0,10
Na                  2
E range min (V)     -2,500
E range max (V)     2,500
I Range             Auto
Bandwidth           5
corr                0
nc cycles           0
goto Ns'            0
nr cycles           0
inc. cycle          0

Number of loops : 1
Loop 0 from point number 0 to 36

freq/Hz	Re(Z)/Ohm	-Im(Z)/Ohm	|Z|/Ohm	Phase(Z)/deg	time/s	<Ewe>/V	<I>/mA	Cs/µF	Cp/µF	cycle number	I Range	|Ewe|/V	|I|/A	Re(Y)/Ohm-1	Im(Y)/Ohm-1	|Y|/Ohm-1	Phase(Y)/deg
1000024,25	3327,76563	-2211,58887	3995,64136	33,6074829	6218,6715	0,268422306	0,000254876591	-7,19623276E-005	-2,20465681E-005	1	12	0,00460163318	1,15166324E-006	0,000208439364	-0,000138526026	0,000250272715	-33,6074829
681286,5	1516,54321	4931,45898	5159,37891	-72,9060669	6219,2194	0,270344287	0,00023202959	4,73712571E-005	4,32783709E-005	1	13	0,00959498249	1,85971658E-006	5,69718031E-005	0,000185259531	0,000193821776	72,9060669
464160,125	1806,32861	7909,42969	8113,06982	-77,1356049	6219,6355	0,270553052	0,000230683901	4,33518035E-005	4,12028312E-005	1	13	0,0102058155	1,25794747E-006	2,74426748E-005	0,000120164106	0,000123257909	77,1356049
316223,094	2520,58447	11647,9941	11917,5967	-77,7896652	6220,0515	0,270618409	0,000230214209	4,32091219E-005	4,12762602E-005	1	13	0,0101153338	8,4877297E-007	1,77469592E-005	8,20113128E-005	8,39095374E-005	77,7896652
215441,859	3627,3645	16947,6738	17331,5156	-77,919075	6220,3655	0,270637006	0,000228007528	4,35893053E-005	4,16799376E-005	1	13	0,0107296044	6,19080595E-007	1,20758641E-005	5,64205111E-005	5,76983584E-005	77,919075
146777,328	5859,29346	24025,5469	24729,7031	-76,2943802	6220,6795	0,270650148	0,000228671022	4,51323431E-005	4,25987309E-005	1	13	0,0107162753	4,33336197E-007	9,5809246E-006	3,92857874E-005	4,04372004E-005	76,2943802
100024,406	10111,709	33970,9648	35443,9414	-73,4239731	6220,9935	0,270931423	0,000232107748	4,68388535E-005	4,30266991E-005	1	13	0,0107791312	3,04117719E-007	8,04897445E-006	2,70410674E-005	2,82135661E-005	73,4239731
68127,4297	17174,6465	45726,0547	48845,0664	-69,413887	6221,3075	0,270679027	0,000226714095	5,10898244E-005	4,47734419E-005	1	13	0,0105430372	2,15846512E-007	7,1985728E-006	1,91655963E-005	2,04728967E-005	69,413887
46411,125	31786,2227	62569,875	70180,8594	-63,0689011	6221,8555	0,270707995	0,000210769955	5,48065873E-005	4,35638212E-005	1	14	0,00984486099	1,40278431E-007	6,4535925E-006	1,27036319E-005	1,42488989E-005	63,0689011
31628,4121	47701,7852	77497,1406	91001,4688	-58,3864708	6222,1695	0,270700753	0,000210427097	6,49317444E-005	4,70903178E-005	1	14	0,0101923468	1,12002006E-007	5,76020375E-006	9,35812568E-006	1,09888333E-005	58,3864708
21545,4082	69143,3125	92029,6953	115109,781	-53,0819054	6222,4834	0,270704389	0,000209909049	8,02670693E-005	5,13060913E-005	1	14	0,010210841	8,87052423E-008	5,2182595E-006	6,94549999E-006	8,68735879E-006	53,0819054
14672,8496	95774,5859	104190,188	141521,609	-47,409893	6222,6955	0,270708084	0,000210042475	0,000104106737	5,64270013E-005	1	14	0,0109843491	7,76160576E-008	4,78194715E-006	5,20213098E-006	7,06605852E-006	47,409893
10015,2705	124697,93	114737,008	169452,516	-42,6177673	6223,0677	0,270706385	0,000209623962	0,000138501331	6,34987155E-005	1	14	0,0100929718	5,95622431E-008	4,34273352E-006	3,9958345E-006	5,90135824E-006	42,6177673
6856,00244	154346,469	125621,773	199006,688	-39,1419601	6223,4181	0,270709008	0,000208571495	0,000184792443	7,36340589E-005	1	14	0,0102599273	5,15556913E-008	3,89727757E-006	3,17197373E-006	5,02495686E-006	39,1419601
4642,42725	185260,203	132852,031	227971,5	-35,6447029	6223,8693	0,270712495	0,000208080673	0,000258051761	8,76359118E-005	1	14	0,00965745095	4,23625366E-008	3,56468399E-006	2,55627219E-006	4,38651341E-006	35,6447029
3160,05566	221948,094	144304,406	264735,188	-33,0307884	6224,3203	0,270716697	0,000207418314	0,000349016365	0,000103700695	1	14	0,00999294408	3,77469433E-008	3,16685441E-006	2,0589996E-006	3,77735955E-006	33,0307884
2152,93286	257491,156	156058,156	301091,094	-31,2188759	6224,7718	0,270714164	0,000206865356	0,000473699765	0,000127256586	1	14	0,0101229344	3,36208359E-008	2,84031512E-006	1,72143518E-006	3,3212541E-006	31,2188759
1468,58972	297548,938	166275,672	340856,219	-29,1972427	6225,2228	0,2707102	0,000206133875	0,000651764858	0,000155097907	1	14	0,010179529	2,98645837E-008	2,56103749E-006	1,43115381E-006	2,93378844E-006	29,1972427
999,040405	340764,75	177984,484	384446,469	-27,5784702	6225,6738	0,270711243	0,000205629913	0,000895065779	0,000191843676	1	14	0,0102004893	2,65329252E-008	2,30559431E-006	1,2042326E-006	2,60114234E-006	27,5784702
681,089661	384442,625	177208,016	423318,813	-24,7472382	6226,1243	0,270710886	0,000204919299	0,00131865893	0,000231080907	1	14	0,0102108838	2,41210252E-008	2,14534134E-006	9,8889052E-007	2,36228584E-006	24,7472382
464,553894	437320,25	186153,938	475291,781	-23,0579815	6226,5758	0,270707995	0,000203787087	0,0018403983	0,00028231609	1	14	0,0102112247	2,14841176E-008	1,93588244E-006	8,2404631E-007	2,1039707E-006	23,0579815
316,315765	486912,438	196636,516	525118,688	-21,9910088	6227,0248	0,270706296	0,000203252479	0,00255879271	0,000358796766	1	14	0,0102092577	1,94418099E-008	1,76577726E-006	7,13098018E-007	1,90433138E-006	21,9910088
215,344498	521393,25	202705,203	559410,688	-21,2448883	6227,4753	0,270708352	0,000202686642	0,00364603987	0,000478728965	1	14	0,0102145411	1,82594668E-008	1,66611085E-006	6,47743946E-007	1,78759547E-006	21,2448883
146,737289	590128,438	187607,281	619231,813	-17,6359406	6227,9223	0,270709813	0,000201698189	0,00578135904	0,000530667894	1	14	0,0102152117	1,64965872E-008	1,53900498E-006	4,89263869E-007	1,61490414E-006	17,6359406
99,9040375	615439,688	212022,297	650937,375	-19,0091057	6228,3738	0,270704418	0,00020125731	0,00751372986	0,000797150307	1	14	0,010210651	1,56860729E-008	1,45246975E-006	5,00383635E-007	1,53624615E-006	19,0091057
68,1888962	701878,563	210768,438	732841,625	-16,7145863	6228,8359	0,270708025	0,000200528346	0,0110739078	0,00091599219	1	14	0,0102118906	1,39346481E-008	1,30689807E-006	3,92450886E-007	1,36455128E-006	16,7145863
46,3802681	687203,25	354612,719	773303,625	-27,2947788	6229,2746	0,270704329	0,000199721573	0,0096768178	0,0020348907	1	14	0,0102155842	1,32103146E-008	1,14917214E-006	5,92999356E-007	1,2931531E-006	27,2947788
31,5869217	740839,813	259220,859	784881,563	-19,2850113	6229,7045	0,270710438	0,000199595976	0,0194376111	0,00212018867	1	14	0,0102139832	1,30134072E-008	1,20258574E-006	4,20786392E-007	1,27407759E-006	19,2850113
21,5220375	854582,313	289171,563	902181,313	-18,6946697	6230,1265	0,270707577	0,000198871392	0,0255729705	0,00262726983	1	14	0,0102123749	1,13196483E-008	1,04994422E-006	3,55277649E-007	1,10842461E-006	18,6946697
14,6851501	931583,375	290584,906	975852	-17,324049	6230,5869	0,270707369	0,000197885369	0,0372965559	0,00330709666	1	14	0,0102112973	1,04639817E-008	9,78258868E-007	3,05144198E-007	1,02474553E-006	17,324049
9,9904108	1006721,25	282043,594	1045483,75	-15,6507778	6231,0378	0,270707518	0,000197294285	0,0564833619	0,00411072513	1	14	0,0102121541	9,76787451E-009	9,21031869E-007	2,58036835E-007	9,56495001E-007	15,6507778
6,81718969	1036893,38	200288,906	1056060,38	-10,9327488	6231,3772	0,270700872	0,000197333429	0,116562232	0,0041927034	1	14	0,0102112563	9,669197E-009	9,29729481E-007	1,79588852E-007	9,46915577E-007	10,9327488
4,63925123	1135917	403233,563	1205365	-19,5441017	6231,8622	0,27070868	0,000196282548	0,0850776657	0,00952120125	1	14	0,0102103828	8,47078052E-009	7,81824838E-007	2,77536117E-007	8,29624241E-007	19,5441017
3,16039586	1211064,63	288800,656	1245023,38	-13,4127312	6232,5561	0,270714045	0,000195597604	0,174373493	0,00938257016	1	14	0,0102140103	8,20387047E-009	7,81290055E-007	1,86313017E-007	8,03197793E-007	13,4127312
2,1522038	1323686,88	270107,875	1350964,5	-11,5332785	6233,5614	0,270712346	0,000194313732	0,273778588	0,0109442528	1	14	0,010211803	7,5588984E-009	7,25266091E-007	1,47995792E-007	7,40211874E-007	11,5332785
1,46630979	1390938,63	232971,766	1410314,13	-9,50835323	6235,0229	0,270712525	0,000192926396	0,465898305	0,0127135254	1	14	0,010211546	7,24061833E-009	6,99320481E-007	1,17130924E-007	7,09061908E-007	9,50835323
0,998529792	1533487,13	260903,563	1555523,5	-9,65569878	6237,1547	0,270712495	0,000190121718	0,610912621	0,0171864405	1	14	0,0102128619	6,56554633E-009	6,33763136E-007	1,07826843E-007	6,42870418E-007	9,65569878

File: LiNiMnO-LATP-LTO_09_OCV_C01.mpt
EC-Lab ASCII FILE
Nb header lines : 46

Open Circuit Voltage

Run on channel : 1 (SN 6985)
Grouped channel(s) : 1
User :
CE vs. WE compliance from -10 V to 10 V
Electrode connection : standard
Ewe ctrl range : min = -2,50 V, max = 2,50 V
Acquisition started on : 01.29.2015 17:18:52
Saved on :
	File : LiNiMnO-LATP-LTO_09_OCV_C01.mpr
	Directory : C:\Hupfer\Studenten Batterietests\ASS Batterie 02\
	Host : 192.168.0.2
Device : VMP3 (SN 0324)
Address : 192.168.0.1
EC-Lab for windows v10.33 (software)
Internet server v10.33 (firmware)
Command interpretor v10.32 (firmware)
Electrode material :
Initial state :
Electrolyte :
Comments :
Mass of active material : 0,001 mg
 at x = 0,000
Molecular weight of active material (at x = 0) : 0,001 g/mol
Atomic weight of intercalated ion : 0,001 g/mol
Acquisition started at : xo = 0,000
Number of e- transfered per intercalated ion : 1
for DX = 1, DQ = 26,801 mA.h
Battery capacity : 0,000 A.h
Electrode surface area : 0,001 cm²
Characteristic mass : 0,001 g
tR (h:m:s)          1:00:0,0000
dER/dt (mV/h)       0,0
dER (mV)            0,00
dtR (s)             60,0000
E range min (V)     -2,500
E range max (V)     2,500

Number of loops : 1
Loop 0 from point number 0 to 60

mode	error	time/s	Ewe/V
3	0	6237,2173	0,0157818012
3	0	6297,2173	-0,0837762058
3	0	6357,2173	-0,0694932193
3	0	6417,2173	-0,0537781119
3	0	6477,2173	-0,0455291122
3	0	6537,2173	-0,0302722808
3	0	6597,2173	-0,0214695297
3	0	6657,2173	-0,0178414974
3	0	6717,2173	-0,0133160045
3	0	6777,2173	-0,00688102096
3	0	6837,2173	-0,000465132529
3	0	6897,2173	0,00751653872
3	0	6957,2173	0,00675274245
3	0	7017,2173	0,017274037
3	0	7077,2173	0,0201191772
3	0	7137,2173	0,0210930184
3	0	7197,2173	0,0286355056
3	0	7257,2173	0,0317670703
3	0	7317,2173	0,0326454379
3	0	7377,2173	0,031003274
3	0	7437,2173	0,039405033
3	0	7497,2173	0,0421546996
3	0	7557,2173	0,0397105515
3	0	7617,2173	0,0421928912
3	0	7677,2173	0,0419064686
3	0	7737,2173	0,0495253354
3	0	7797,2173	0,0482841656
3	0	7857,2173	0,053936258
3	0	7917,2173	0,0540317334
3	0	7977,2173	0,0517212488
3	0	8037,2173	0,0519121997
3	0	8097,2173	0,0557502732
3	0	8157,2172	0,058041662
3	0	8217,2172	0,0638465136
3	0	8277,2172	0,0650876835
3	0	8337,2172	0,0600275323
3	0	8397,2172	0,066557996
3	0	8457,2172	0,0664434209
3	0	8517,2172	0,0656796247
3	0	8577,2172	0,0639038011
3	0	8637,2172	0,0701478347
3	0	8697,2172	0,0667680353
3	0	8757,2172	0,0726110786
3	0	8817,2172	0,0749215633
3	0	8877,2172	0,0750361308
3	0	8937,2172	0,0763536841
3	0	8997,2172	0,0711025819
3	0	9057,2172	0,0719045699
3	0	9117,2172	0,0787978321
3	0	9177,2172	0,0729738846
3	0	9237,2172	0,0801153779
3	0	9297,2172	0,0762200132
3	0	9357,2172	0,07931339
3	0	9417,2172	0,0806309432
3	0	9477,2172	0,0766019151
3	0	9537,2172	0,0807264149
3	0	9597,2172	0,0788169205
3	0	9657,2172	0,0809173658
3	0	9717,2172	0,0837243125
3	0	9777,2172	0,0797716677
3	0	9837,2172	0,0876960531