Folder: thesis/Experimentelles/Rohdaten/Batterietests/AlteZelle/Studenten_Batterietests/S vs Li GCPL 300µm/ECLab-Export

Note: README.md
# thesis

Zusammenfassung
---------------
Es konnten die Festkörperelektrolytkeramiken LATP, LAGP, LTO und LLTO hergestellt,
mit XRD und MAS-NMR charakterisiert und zu Elektrodensuspensionen weiterverarbeitet
werden. Aus den Daten der MAS-NMR konnten dabei gegenüber der XRD keine Mehrinfor-
mationen gewonnen werden. Die mit den Suspensionen gegossenen und gestanzten Elektro-
denproben wurden mittels REM und EDX untersucht und als Kathode in Testzellen verbaut.
Mit diesen wurden Ladekennlinien erstellt und eine zyklischer Voltametrie durchgeführt. Aus
den Ladekennlinien konnten die Kapazitäten und der Grad der Lithiuminsertation in die
Materialen bestimmt werden. Die zyklische Voltametrie lieferte nicht-reaktive Spannungsbe-
reiche der Materialien.

Für ein noch besseres Verständnis der Lithiumbewegung und -insertation wurde eine in-situ
NMR-Testzelle konzipiert, konstruiert, gebaut und getestet. Für den Test kam dabei eine
Lithium-Schwefel-Zelle zum Einsatz, für welche ein Di?usionskoe?zient sowie ein Spektrum
vor und nach einer 90 minütigen Ladezeit aufgenommen worden ist.

Abstract
--------
The all solid state electrolyte ceramics LATP, LAGP, LTO, and LLTO were successfully
synthesized and characterized by using XRD. MAS-NMR spectroscopy were not able to ge-
nerate additional information. All powders were processed to electrode slurries, casted on
aluminum foils and punched to electrode samples. Those samples were studied by SEM and
EDX and then build into battery test cells. The cells were analyzed by measuring the charge
curves as well as cyclic voltammetry. With the charge curves capacities and the amount of
lithium insertion were calculated. The cyclic voltammetry was able to detect non-reactive
voltage regions.

To be able to better understand lithium movement and insertion a novel in-situ NMR sample
cell was designed, constructed, built and tested. Therefore, a lithium-sulfur-cell was built into
the in-situ sample cell. With this setting a diffusion coeffcient as well as a NMR spectrum
before and after 90 minutes of charging were measured.

File: S vs Li GCPL 300µm_02_GCPL_C06_loop0.mpt
EC-Lab ASCII FILE
Nb header lines : 3
mode	ox/red	error	control changes	Ns changes	counter inc.	Ns	time/s	control/V/mA	Ewe/V	dq/mA.h	<I>/mA	P/W	(Q-Qo)/mA.h	x	Capacity/mA.h
1	0	0	1	1	0	1	3600,00	-0,200000003	2,35106134	0	0	0	0	0	0
1	0	0	1	0	0	1	4800,00	-0,200000003	2,32027936	-0,00055589479671170317	-0,20012212923913046	0,000464339246	-0,066704493429951949	0,0024888343350167699	0,066704493429951949
1	0	0	1	0	0	1	6000,00	-0,200000003	2,30888844	-0,0005558894856356912	-0,20012021725174301	0,000462055265	-0,13341134767815613	0,0049777567553366848	0,13341134767815613
1	0	0	1	0	0	1	7200,00	-0,200000003	2,29806924	-0,00055587937939663725	-0,20011657900563955	0,000459881761	-0,20011730629173398	0,0074666457583244979	0,20011730629173398
1	0	0	1	0	0	1	8400,00	-0,200000003	2,28702116	-0,00055588504568073478	-0,20011861886793936	0,000457675516	-0,26682355780907453	0,0099555456899455078	0,26682355780907453
1	0	0	1	0	0	1	9600,00	-0,200000003	2,27425885	-0,00055588864561915398	-0,20011991484578598	0,000455124478	-0,33353001388843354	0,012444453254050466	0,33353001388843354
1	0	0	1	0	0	1	10800,00	-0,200000003	2,25871539	-0,00055588154126207034	-0,2001173572772049	0,000452008157	-0,40023573801219539	0,014933333507907968	0,40023573801219539
1	0	0	1	0	0	1	12000,00	-0,200000003	2,23747683	-0,00055588829811082944	-0,20011978974278762	0,000447763392	-0,46694088757609344	0,017422192324164448	0,46694088757609344
1	0	0	1	0	0	1	13200,00	-0,200000003	2,2078948	-0,00055588541146781715	-0,20011875055129062	0,000441841141	-0,53364670261497491	0,019911075970187302	0,53364670261497491
1	0	0	1	0	0	1	14400,00	-0,200000003	2,17017937	-0,0005558814279735088	-0,20011731649332224	0,000434290472	-0,60035287421155469	0,022399972919857277	0,60035287421155469
1	0	0	1	0	0	1	15600,00	-0,200000003	2,12598753	-0,0005558814879183968	-0,20011733807348221	0,000425446953	-0,66705819436963699	0,024888838101212134	0,66705819436963699
1	0	0	1	0	0	1	16800,00	-0,200000003	2,08438611	-0,00055587719260404512	-0,20011579176029683	0,000417118572	-0,73376399020081139	0,027377721030569613	0,73376399020081139
1	0	0	1	0	0	1	18000,00	-0,200000003	2,08629084	-0,00055587647904041741	-0,20011553487738774	0,000417499221	-0,80046913314723059	0,029866579599919059	0,80046913314723059
1	0	0	1	0	0	1	19200,00	-0,200000003	2,08684325	-0,00055587735893246195	-0,20011585163852762	0,000417610427	-0,86717425103357274	0,032355437234243341	0,86717425103357274
1	0	0	1	0	0	1	20400,00	-0,200000003	2,08653855	-0,00055588193794919386	-0,20011750008457104	0,000417552888	-0,9338796220648151	0,034844304313744205	0,9338796220648151
1	0	0	1	0	0	1	21600,00	-0,200000003	2,08478618	-0,00055587499969287053	-0,20011500231226442	0,000417196978	-1,000584902819057	0,0373331680248888	1,000584902819057
1	0	0	1	0	0	1	22800,00	-0,200000003	2,08263373	-0,00055586848892685446	-0,20011265843647024	0,000416761381	-1,0672901520449312	0,039822030559667603	1,0672901520449312
1	0	0	1	0	0	1	24000,00	-0,200000003	2,07947159	-0,00055587327414502701	-0,20011438111503325	0,000416132156	-1,1339951800082568	0,042310884838843238	1,1339951800082568
1	0	0	1	0	0	1	25200,00	-0,200000003	2,07571912	-0,00055588323529147443	-0,20011796712779776	0,000415388698	-1,2007006642461722	0,044799756142237274	1,2007006642461722
1	0	0	1	0	0	1	26400,00	-0,200000003	2,07137609	-0,00055587005817393459	-0,20011322336542598	0,000414509734	-1,2674058129833278	0,047288614927646886	1,2674058129833278
1	0	0	1	0	0	1	27600,00	-0,200000003	2,06613779	-0,0005558663313430217	-0,20011188170628109	0,000413458707	-1,3341099268073288	0,049777435099055245	1,3341099268073288
1	0	0	1	0	0	1	28800,00	-0,200000003	2,06093764	-0,00055587929805864883	-0,20011654972396336	0,000412427733	-1,4008147837533944	0,052266282997346963	1,4008147837533944
1	0	0	1	0	0	1	30000,00	-0,200000003	2,05440426	-0,00055588252939697773	-0,20011771300577584	0,000411122688	-1,4675200734349853	0,05475514704158295	1,4675200734349853
1	0	0	1	0	0	1	31200,00	-0,200000003	2,04625154	-0,00055588103895882771	-0,20011717644803533	0,00040949008	-1,5342254109826333	0,057244012871765888	1,5342254109826333
1	0	0	1	0	0	1	32400,00	-0,200000003	2,03587031	-0,00055587576766726054	-0,20011527878304816	0,000407408748	-1,6009302753657427	0,059732861047543718	1,6009302753657427
1	0	0	1	0	0	1	33600,00	-0,200000003	2,02289844	-0,00055587183429383571	-0,20011385997303978	0,000404810009	-1,6676349873151091	0,062221703535813645	1,6676349873151091
1	0	0	1	0	0	1	34800,00	-0,200000003	2,0054884	-0,00055587233139077824	-0,20011403892793872	0,000401326397	-1,7343396258394006	0,064710543284495296	1,7343396258394006
1	0	0	1	0	0	1	36000,00	-0,200000003	1,97996366	-0,00055586252142323386	-0,20011050733962934	0,000396211544	-1,8010434089993862	0,067199351118384653	1,8010434089993862
1	0	0	1	0	0	1	37200,00	-0,200000003	1,94377196	-0,0005558550465678176	-0,20010781639168445	0,000388963963	-1,8677467021698256	0,069688140670105254	1,8677467021698256
1	0	0	1	0	0	1	38400,00	-0,200000003	1,90028489	-0,00055585731589049107	-0,20010863334784541	0,000380263402	-1,934450217486137	0,072176938510387008	1,934450217486137
1	0	0	1	0	0	1	39600,00	-0,200000003	1,85235953	-0,0005558703586210807	-0,20011332873084893	0,000370681839	-2,0011539785660419	0,074665745520438861	2,0011539785660419
1	1	0	0	0	0	2	40790,00	0,200000003	2,26069641	0,00055533203729407654	0,19991953305348838	0,00045195737	-1,9350688674892861	0,072200021173788275	0,066085111076755635
1	1	0	0	0	0	2	41990,00	0,200000003	2,24743891	0,00055533602445407053	0,19992096843108355	0,000449310173	-1,8684283035691645	0,069713572134737421	0,13272567499687688
1	1	0	0	0	0	2	43190,00	0,200000003	2,24437213	0,00055532937607500288	0,19991857501462368	0,000448691688	-1,8017878529661443	0,067227127323699968	0,19936612559989674
1	1	0	0	0	0	2	44390,00	0,200000003	2,24526739	0,0005553354333473577	0,19992075563266733	0,000448875566	-1,7351474953686448	0,064740685982823539	0,266006483197396
1	1	0	0	0	0	2	45590,00	0,200000003	2,24806762	0,0005553355403029257	0,19992079413667174	0,000449435465	-1,6685067877869299	0,062254231583565478	0,33264719077911046
1	1	0	0	0	0	2	46790,00	0,200000003	2,25073433	0,00055534206539226906	0,19992314316883101	0,000449973886	-1,6018658965700682	0,059767770332633178	0,39928808199597126
1	1	0	0	0	0	2	47990,00	0,200000003	2,25395346	0,00055534413318915494	0,19992388757570854	0,000450619147	-1,5352249130311101	0,057281305637039347	0,46592906553492928
1	1	0	0	0	0	2	49190,00	0,200000003	2,25740123	0,00055534154861917094	0,199922957130516	0,000451306318	-1,4685838546155811	0,054794838147699994	0,53257012395045722
1	1	0	0	0	0	2	50390,00	0,200000003	2,2610774	0,00055534160336107021	0,19992297683759971	0,000452041335	-1,4019432837052773	0,052308388847836032	0,59921069486076006
1	1	0	0	0	0	2	51590,00	0,200000003	2,2650013	0,00055533238440420896	0,19991965801313584	0,000452818291	-1,3353029585912779	0,049821948718962669	0,66585101997475904
1	1	0	0	0	0	2	52790,00	0,200000003	2,26896334	0,00055533755148450534	0,19992151816203907	0,000453614601	-1,2686628810494779	0,047335517827340941	0,73249109751655962
1	1	0	0	0	0	2	53990,00	0,200000003	2,27366829	0,00055533669006907277	0,19992120805248394	0,000454554509	-1,2020225864146019	0,044849078835684646	0,79913139215143578
1	1	0	0	0	0	2	55190,00	0,200000003	2,27898288	0,00055533557015491853	0,19992080488338915	0,0004556161	-1,135382541319216	0,04236264915468224	0,86577143724682163
1	1	0	0	0	0	2	56390,00	0,200000003	2,28467822	0,00055533590663058886	0,19992092601463027	0,000456754991	-1,0687426797259632	0,039876226320391142	0,93241129884007501
1	1	0	0	0	0	2	57590,00	0,200000003	2,29138327	0,00055533696241262886	0,19992130609616397	0,000458096329	-1,0021023416688235	0,037389785708591821	0,99905163689721498
1	1	0	0	0	0	2	58790,00	0,200000003	2,29905963	0,00055534999676297114	0,1999259984622784	0,0004596418	-0,93546126463524864	0,034903317524588134	1,065692713930791
1	1	0	0	0	0	2	59990,00	0,200000003	2,3072505	0,00055534157111909658	0,19992296523048922	0,000461272371	-0,86882087557972915	0,032416875009970688	1,1323331029863115
1	1	0	0	0	0	2	61190,00	0,200000003	2,3156507	0,000555322356959184	0,1999160481329336	0,000462935743	-0,8021812656175433	0,029930461564373018	1,1989727129484973
1	1	0	0	0	0	2	62390,00	0,200000003	2,3224318	0,00055534727080994182	0,1999250171191897	0,000464312208	-0,73554091582829786	0,027444020514833046	1,2656130627377435
1	1	0	0	0	0	2	63590,00	0,200000003	2,32709861	0,00055533578425563053	0,19992088195964534	0,000465235615	-0,66890040619121165	0,024957573501155222	1,3322535723748299
1	1	0	0	0	0	2	64790,00	0,200000003	2,32875586	0,00055534236992730042	0,19992325280144205	0,000465572433	-0,60226011667934362	0,022471134700645254	1,3988938618866984
1	1	0	0	0	0	2	65990,01	0,200000003	2,32989883	0,00055535353728300992	0,19992332257645574	0,000465801102	-0,53561907015178989	0,019984667654862227	1,4655349084142518
1	1	0	0	0	0	2	67190,03	0,200000003	2,33125114	0,00055537223460359712	0,19993005352540131	0,000466087164	-0,46897653350390067	0,017498145010685997	1,5321774450621411
1	1	0	0	0	0	2	68390,06	0,200000003	2,33269882	0,00055535713807410662	0,1999246181374193	0,000466363912	-0,40233368104772582	0,015011610583278022	1,5988202975183149
1	1	0	0	0	0	2	69590,08	0,200000003	2,33407021	0,00055534773888025018	0,1999212346993159	0,000466630183	-0,33569169248226835	0,012525108388794227	1,6654622860837728
1	1	0	0	0	0	2	70790,10	0,200000003	2,33603215	0,00055534728248086234	0,19992107093872678	0,000467022037	-0,26904989317332374	0,010038613255725379	1,7321040853927178
1	1	0	0	0	0	2	71990,13	0,200000003	2,33826089	0,00055534851624982221	0,19992151452821206	0,000467468664	-0,20240828735782944	0,0075521253421573222	1,7987456912082125
1	1	0	0	0	0	2	73190,15	0,200000003	2,34115624	0,00055534956856817011	0,19992189316914195	0,000468048383	-0,13576719415788416	0,005065656554964617	1,8653867844081578
1	1	0	0	0	0	2	74390,18	0,200000003	2,34389925	0,00055534503912346234	0,19992026334602211	0,000468592945	-0,069126260939756915	0,0025791937369086403	1,9320277176262845
1	1	0	0	0	0	2	75590,20	0,200000003	2,34700394	0,0005553420626256201	0,1999191917628088	0,00046921114	-0,0024852749825251152	9,2728951085764442E-005	1,9986687035835165
1	1	0	0	0	0	2	75600,00	0,200000003	2,34708023	0,00054416404000504147	0,19991744167299002	0,000469222286	-0,0019411109425200736	7,2425459116843226E-005	1,9992128676235216

File: S vs Li GCPL 300µm_02_GCPL_C06_loop3.mpt
EC-Lab ASCII FILE
Nb header lines : 3
mode	ox/red	error	control changes	Ns changes	counter inc.	Ns	time/s	control/V/mA	Ewe/V	dq/mA.h	<I>/mA	P/W	(Q-Qo)/mA.h	x	Capacity/mA.h
1	0	0	1	1	0	1	219600,15	-0,200000003	2,32252717	0	0	0	0	0	0
1	0	0	1	0	0	1	220760,15	-0,200000003	2,2562964	-0,00055585105405251194	-0,2001063481498263	0,000451499218	-0,064475140371082432	0,0024056541749932816	0,064475140371082432
1	0	0	1	0	0	1	221920,15	-0,200000003	2,23073363	-0,00055584915150039725	-0,20010566323117222	0,000446382444	-0,12895394816318054	0,0048114451863955578	0,12895394816318054
1	0	0	1	0	0	1	223080,15	-0,200000003	2,19164658	-0,00055584803913036979	-0,20010526277802499	0,000438560004	-0,19343243482808253	0,0072172242161103872	0,19343243482808253
1	0	0	1	0	0	1	224240,15	-0,200000003	2,13071132	-0,0005558456228143639	-0,20010439290439898	0,000426364684	-0,25791083132490016	0,0096229998815327578	0,25791083132490016
1	0	0	1	0	0	1	225400,15	-0,200000003	2,05632806	-0,00055584089392009715	-0,20010269050272928	0,000411476765	-0,32238870562671526	0,012028756063157483	0,32238870562671526
1	0	0	1	0	0	1	226560,15	-0,200000003	2,02226973	-0,00055585220758782496	-0,20010676342247405	0,000404669845	-0,38686682052857082	0,01443452122189321	0,38686682052857082
1	0	0	1	0	0	1	227720,15	-0,200000003	2,02339363	-0,00055584802785101862	-0,2001052587174592	0,000404891704	-0,45134549718431366	0,016840307340421757	0,45134549718431366
1	0	0	1	0	0	1	228880,15	-0,200000003	2,03181291	-0,00055584765150315238	-0,20010512323224851	0,000406576175	-0,51582389372442637	0,019246083007459526	0,51582389372442637
1	0	0	1	0	0	1	230040,15	-0,200000003	2,03992748	-0,00055585661274856998	-0,20010834928009411	0,000408206513	-0,58030226497277798	0,02165185773082768	0,58030226497277798
1	0	0	1	0	0	1	231200,15	-0,200000003	2,04720402	-0,00055584517695258067	-0,20010423239418211	0,000409654196	-0,64478093116749184	0,024057643459041171	0,64478093116749184
1	0	0	1	0	0	1	232360,15	-0,200000003	2,05307078	-0,00055585171077979936	-0,20010658457161283	0,000410832989	-0,70925941761578739	0,026463422480674122	0,70925941761578739
1	0	0	1	0	0	1	233520,15	-0,200000003	2,05813766	-0,00055585254177202784	-0,20010688372876826	0,000411847519	-0,77373785793687872	0,028869199781239066	0,77373785793687872
1	0	0	1	0	0	1	234680,15	-0,200000003	2,06394744	-0,00055584595011671386	-0,2001045107332265	0,000413005182	-0,8382163221783753	0,03127497797430649	0,8382163221783753
1	0	0	1	0	0	1	235840,16	-0,200000003	2,0688808	-0,00055583935394883155	-0,20010213611316042	0,000413987465	-0,9026950228844329	0,033680764990184614	0,9026950228844329
1	0	0	1	0	0	1	237000,16	-0,200000003	2,07227135	-0,00055585000813255699	-0,20010597161870147	0,000414673879	-0,9671735338266272	0,036086544925717862	0,9671735338266272
1	0	0	1	0	0	1	238160,16	-0,200000003	2,07417631	-0,00055584818678349248	-0,20010531593314086	0,000415053713	-1,0316516885806157	0,038492311571390253	1,0316516885806157
1	0	0	1	0	0	1	239320,16	-0,200000003	2,07522392	-0,00055584880285875667	-0,20010553772020122	0,000415263785	-1,0961301422406222	0,040898089369648051	1,0961301422406222
1	0	0	1	0	0	1	240480,16	-0,200000003	2,07495713	-0,00055584796295894528	-0,20010523535631642	0,000415209797	-1,1606087156335037	0,043303871635300403	1,1606087156335037
1	0	0	1	0	0	1	241640,16	-0,200000003	2,07341433	-0,00055585043122950534	-0,20010612393357901	0,000414902897	-1,2250871002402424	0,045709646857087942	1,2250871002402424
1	0	0	1	0	0	1	242800,16	-0,200000003	2,07029033	-0,00055585269834266765	-0,20010694009418979	0,000414279464	-1,2895655100729064	0,048115423020088678	1,2895655100729064
1	0	0	1	0	0	1	243960,16	-0,200000003	2,06318545	-0,00055585541096909171	-0,20010791663954966	0,00041285975	-1,3540443634715064	0,050521215733130854	1,3540443634715064
1	0	0	1	0	0	1	245120,16	-0,200000003	2,04886103	-0,00055585154826111264	-0,20010652606489472	0,000409990462	-1,4185235282746333	0,052927020065094624	1,4185235282746333
1	0	0	1	0	0	1	246280,16	-0,200000003	2,02453661	-0,00055584744830595123	-0,20010505008126755	0,000405119994	-1,483002709304169	0,055332825002487514	1,483002709304169
1	0	0	1	0	0	1	247440,16	-0,200000003	1,98762095	-0,0005558461926339401	-0,2001045980394143	0,000397732103	-1,5474817772615462	0,057738625721006157	1,5474817772615462
1	0	0	1	0	0	1	248600,16	-0,200000003	1,9324764	-0,00055585177976720858	-0,20010660940474669	0,000386701315	-1,6119604903321635	0,060144413198222618	1,6119604903321635
1	0	0	1	0	0	1	249760,16	-0,200000003	1,86546469	-0,00055586179015619885	-0,2001102131465489	0,000373298535	-1,6764390846316208	0,062550196243927437	1,6764390846316208
1	0	0	1	0	0	1	250920,16	-0,200000003	1,80220556	-0,00055585149674117562	-0,20010650751772032	0,000360633072	-1,7409179471207245	0,064955989296148531	1,7409179471207245
1	0	0	1	0	0	1	252080,16	-0,200000003	1,68374455	-0,000555842061618136	-0,2001031108739575	0,000336922531	-1,8053961064905174	0,067361756114042778	1,8053961064905174
1	1	0	0	0	0	2	253225,42	0,200000003	2,31165051	0,00055535742030292749	0,19992864002778051	0,000462165131	-1,829051590329903	0,068244374021226547	0,019993159565006691
1	1	0	0	0	0	2	254385,42	0,200000003	2,25574398	0,00055536886113385357	0,1999327587262695	0,000450997119	-1,7646290571269898	0,065840682690408742	0,084415692767919002
1	1	0	0	0	0	2	255545,42	0,200000003	2,25039148	0,00055537990481240883	0,19993673444992736	0,000449935935	-1,7002057197507091	0,063436961354801382	0,14883903014419974
1	1	0	0	0	0	2	256705,42	0,200000003	2,25180101	0,00055538627044525414	0,19993902607739312	0,000450222899	-1,6357814833206349	0,061033206474288205	0,21326326657427357
1	1	0	0	0	0	2	257865,42	0,200000003	2,25481057	0,00055537963696651981	0,1999366380254224	0,000450819236	-1,571357432269968	0,058629458510529946	0,27768731762493898
1	1	0	0	0	0	2	259025,42	0,200000003	2,25814414	0,00055537512573103104	0,19993501398090051	0,000451482076	-1,5069336603721702	0,056225720962340557	0,34211108952273555
1	1	0	0	0	0	2	260185,42	0,200000003	2,26138234	0,00055536755959110131	0,199932290170952	0,00045212335	-1,4425106329823834	0,053822011192746067	0,40653411691252262
1	1	0	0	0	0	2	261345,42	0,200000003	2,26524901	0,00055537054126295776	0,19993336357265238	0,00045289885	-1,378087092670611	0,051418282285342656	0,47095765722429453
1	1	0	0	0	0	2	262505,43	0,200000003	2,26900148	0,00055537757451832288	0,19993207714354138	0,000453646178	-1,3136635147172728	0,049014551973481818	0,53538123517763226
1	1	0	0	0	0	2	263665,45	0,200000003	2,27323031	0,00055539701643255021	0,1999390761072089	0,000454507564	-1,2492384436713488	0,046610765952329126	0,59980630622355597
1	1	0	0	0	0	2	264825,48	0,200000003	2,27766848	0,00055539530751274688	0,1999384608986151	0,000455393543	-1,1848134756710206	0,04420698377594615	0,66423127422388365
1	1	0	0	0	0	2	265985,50	0,200000003	2,28204966	0,00055539513611710739	0,19993839920202803	0,000456269365	-1,1203878174659187	0,041803175847095085	0,72865693242898573
1	1	0	0	0	0	2	267145,52	0,200000003	2,28683066	0,00055539025733454368	0,19993664287877814	0,000457221235	-1,0559620486727979	0,039399363792056346	0,79308270122210496
1	1	0	0	0	0	2	268305,54	0,200000003	2,29144025	0,00055537829115821261	0,1999323351382441	0,000458132999	-0,9915367194958967	0,03699556813968983	0,85750803039900518
1	1	0	0	0	0	2	269465,56	0,200000003	2,29658341	0,00055538095710674931	0,19993329485658294	0,000459163479	-0,9271121660176631	0,034591801429683539	0,92193258387723878
1	1	0	0	0	0	2	270625,59	0,200000003	2,30212641	0,00055538390644308595	0,19993435659256541	0,000460274168	-0,86268738567581606	0,032188026255090803	0,98635736421908582
1	1	0	0	0	0	2	271785,61	0,200000003	2,30782175	0,00055538619588398272	0,19993518078472867	0,000461414747	-0,79826273175049882	0,029784255797268768	1,0507820181444026
1	1	0	0	0	0	2	272945,63	0,200000003	2,31325054	0,00055537832232233555	0,1999323463478024	0,000462493597	-0,73383827606176768	0,027380492735920291	1,115206473833132
1	1	0	0	0	0	2	274105,65	0,200000003	2,31885076	0,000555385254126456	0,19993484175389197	0,000463619072	-0,66941373214819725	0,024976726382784445	1,1796310177467035
1	1	0	0	0	0	2	275265,68	0,200000003	2,32302237	0,00055538028322408595	0,19993305226815024	0,000464448938	-0,60498931781224781	0,022572964864363859	1,2440554320826536
1	1	0	0	0	0	2	276425,70	0,200000003	2,32572722	0,00055538357351637542	0,19993423675056736	0,00046499251	-0,54056523891993805	0,02016921586179647	1,3084795109749629
1	1	0	0	0	0	2	277585,72	0,200000003	2,3273654	0,00055539327356798778	0,19993772869725552	0,000465328165	-0,47613992601169389	0,017765420816435424	1,3729048238832078
1	1	0	0	0	0	2	278745,74	0,200000003	2,32833672	0,00055538721846209638	0,19993554889645139	0,000465517282	-0,41171533900920723	0,015361652855594173	1,437329410885696
1	1	0	0	0	0	2	279905,77	0,200000003	2,32978439	0,00055538417766325997	0,19993445423925805	0,000465804158	-0,34729037268190822	0,012957870741634173	1,5017543772129946
1	1	0	0	0	0	2	281065,79	0,200000003	2,33058453	0,00055539189136607789	0,19993723110949382	0,000465970603	-0,28286564845022976	0,010554097660587274	1,5661791014446723
1	1	0	0	0	0	2	282225,81	0,200000003	2,33132744	0,00055539200902895795	0,19993727347197011	0,000466119265	-0,21844026811756528	0,0081503000995304486	1,630604481777336
1	1	0	0	0	0	2	283385,83	0,200000003	2,33267975	0,00055538398029738003	0,19993438318890931	0,000466382888	-0,15401457841862838	0,0057464909956020531	1,695030171476273
1	1	0	0	0	0	2	284545,86	0,200000003	2,333956	0,00055539645337065056	0,19993887340882797	0,000466648547	-0,089589306956490278	0,0033426974966509446	1,7594554429384096
1	1	0	0	0	0	2	285705,88	0,200000003	2,33599424	0,00055539630757520595	0,19993882091882339	0,000467055943	-0,025163797621959994	0,00093889512236106176	1,8238809522729398
1	1	0	0	0	0	2	286865,90	0,200000003	2,33793712	0,00055538478703051802	0,19993467359793706	0,0004674347	0,039261503403217043	-0,0014648994796267766	1,8883062532981171
1	1	0	0	0	0	2	288025,92	0,200000003	2,34039426	0,00055538151916613184	0,19993349719871965	0,000467923208	0,10368635920685326	-0,00386867746980032	1,9527311091017533
1	1	0	0	0	0	2	288865,40	0,200000003	2,34245157	0,00052571341786368019	0,19993764022167142	0,000468344253	0,1503097367077896	-0,0056082583701579994	1,9993544866026899