Folder: thesis/Experimentelles/Rohdaten/Batterietests/AlteZelle/Studenten_Batterietests/S vs Li GCPL 300µm/ZView-Export (part 2)

File: S vs Li GCPL 300µm_02_GCPL_C06_loop9.txt
EC-Lab ASCII FILE
Nb header lines : 3
mode	ox/red	error	control changes	Ns changes	counter inc.	Ns	time/s	control/V/mA	Ewe/V	dq/mA.h	<I>/mA	P/W	(Q-Qo)/mA.h	x	Capacity/mA.h
1	0	0	1	1	0	1	629751,65	-0,200000003	2,34685159	0	0	0	0	0	0
1	0	0	1	0	0	1	630871,67	-0,200000003	2,26414418	-0,00055587043776611488	-0,20010959992356474	0,000453076995	-0,062254455968601152	0,0023227974541947712	0,062254455968601152
1	0	0	1	0	0	1	631991,69	-0,200000003	2,24201012	-0,00055586634807785344	-0,20010812765411875	0,000448644452	-0,12451163872929349	0,0046456966486686758	0,12451163872929349
1	0	0	1	0	0	1	633111,71	-0,200000003	2,21861887	-0,00055587686482899712	-0,20011191362275555	0,000443972065	-0,18676880880161629	0,0069685953697224525	0,18676880880161629
1	0	0	1	0	0	1	634231,73	-0,200000003	2,18617988	-0,0005558659478566713	-0,2001079835865167	0,000437472045	-0,24902611672549453	0,0092914992342031066	0,24902611672549453
1	0	0	1	0	0	1	635351,75	-0,200000003	2,12450171	-0,00055587714740137267	-0,20011201533758227	0,000425138307	-0,31128330590977638	0,011614398668349773	0,31128330590977638
1	0	0	1	0	0	1	636471,78	-0,200000003	1,99183071	-0,00055586210145635725	-0,20010659890840528	0,000398578472	-0,3735406569883952	0,013937304142991818	0,3735406569883952
1	0	0	1	0	0	1	637591,80	-0,200000003	1,89954197	-0,00055586098404477037	-0,20010619664778768	0,000380110112	-0,43579708191423565	0,016260175061628483	0,43579708191423565
1	0	0	1	0	0	1	638711,82	-0,200000003	1,88397956	-0,00055586694207870304	-0,20010834149040912	0,000377000018	-0,4980540940526944	0,018583067889957446	0,4980540940526944
1	0	0	1	0	0	1	639831,84	-0,200000003	1,88773203	-0,00055586861691044435	-0,20010894442783229	0,000377752061	-0,56031105239574554	0,020905958711107421	0,56031105239574554
1	0	0	1	0	0	1	640951,86	-0,200000003	1,8875035	-0,00055586918652554342	-0,20010914948541738	0,000377706718	-0,62256804514962278	0,02322885081617159	0,62256804514962278
1	0	0	1	0	0	1	642071,88	-0,200000003	1,89359891	-0,00055586185834556819	-0,20010651139016461	0,000378921482	-0,68482494138139034	0,02555173931986607	0,68482494138139034
1	0	0	1	0	0	1	643191,90	-0,200000003	1,90563738	-0,0005558628053706553	-0,20010685231279411	0,000381331105	-0,74708200971025024	0,027874634244734451	0,74708200971025024
1	0	0	1	0	0	1	644311,92	-0,200000003	1,91975212	-0,00055585930515742963	-0,20010559225969424	0,000384153129	-0,8093384943667447	0,030197507392002118	0,8093384943667447
1	0	0	1	0	0	1	645431,94	-0,200000003	1,93561935	-0,00055587359097103277	-0,20011073505601958	0,000387338223	-0,87159602719256602	0,032520419647876659	0,87159602719256602
1	0	0	1	0	0	1	646551,97	-0,200000003	1,94619107	-0,00055585630642705491	-0,20010451273703072	0,000389441615	-0,93385297713530816	0,034843310155599808	0,93385297713530816
1	0	0	1	0	0	1	647671,99	-0,200000003	1,9542675	-0,00055586074730671123	-0,20010611142368669	0,000391060865	-0,99610939112745126	0,037166180666285517	0,99610939112745126
1	0	0	1	0	0	1	648792,01	-0,200000003	1,96575367	-0,00055586146561635866	-0,20010637000098602	0,000393359835	-1,0583654391495811	0,03948903752213799	1,0583654391495811
1	0	0	1	0	0	1	649912,03	-0,200000003	1,97455394	-0,0005558647474191255	-0,20010755143711517	0,000395123148	-1,1206217382873326	0,04181190374745193	1,1206217382873326
1	0	0	1	0	0	1	651032,05	-0,200000003	1,98196363	-0,00055585922780798547	-0,20010556441441725	0,000396601943	-1,1828781495693179	0,044134774157018003	1,1828781495693179
1	0	0	1	0	0	1	652152,07	-0,200000003	1,98438275	-0,00055585418143785664	-0,20010374774596634	0,000397082418	-1,2451346092433893	0,046457646372157882	1,2451346092433893
1	0	0	1	0	0	1	653272,09	-0,200000003	1,98434472	-0,00055585079985029165	-0,20010253040662026	0,000397072406	-1,3073906251623528	0,048780502030198048	1,3073906251623528
1	0	0	1	0	0	1	654392,11	-0,200000003	1,98388755	-0,00055586876091195482	-0,20010899626740262	0,000396993739	-1,369647018818052	0,051103371782103693	1,369647018818052
1	0	0	1	0	0	1	655512,13	-0,200000003	1,97861123	-0,00055585837669836141	-0,20010525802070605	0,000395930518	-1,4319030556944272	0,053426228222093075	1,4319030556944272
1	0	0	1	0	0	1	656632,15	-0,200000003	1,96988714	-0,00055585763840377331	-0,20010499223964518	0,000394184259	-1,4941591823744666	0,055749088012777894	1,4941591823744666
1	0	0	1	0	0	1	657752,18	-0,200000003	1,94982934	-0,00055585901405082803	-0,20010548746328554	0,000390171539	-1,5564154629431997	0,058071953545256794	1,5564154629431997
1	0	0	1	0	0	1	658872,20	-0,200000003	1,88866544	-0,00055586556677023565	-0,20010784639797603	0,000377936783	-1,6186717223080733	0,060394818286591181	1,6186717223080733
1	0	0	1	0	0	1	659992,22	-0,200000003	1,70900249	-0,00055585757271200422	-0,20010496859105238	0,000341979903	-1,6809280671829526	0,062717686218418842	1,6809280671829526
1	1	0	0	0	0	2	661097,90	0,200000003	2,31313634	0,00055536962006572218	0,19992930893694029	0,000462463737	-1,6912702796450816	0,063103568070633434	0,025546990234938758
1	1	0	0	0	0	2	662217,92	0,200000003	2,27088737	0,00055536284889363584	0,19992687136076218	0,000454011402	-1,6290694502866534	0,060782771497365952	0,087747819593368294
1	1	0	0	0	0	2	663337,94	0,200000003	2,26814437	0,00055535842916866138	0,19992528028033907	0,00045345939	-1,5668686703007789	0,058461976766254848	0,14994859957924154
1	1	0	0	0	0	2	664457,96	0,200000003	2,27124929	0,00055535665932711622	0,19992464315865645	0,00045407869	-1,5046680941716726	0,056141189641313843	0,21214917570834688
1	1	0	0	0	0	2	665577,98	0,200000003	2,27641129	0,00055535829997393818	0,19992523378042163	0,000455112051	-1,4424677159631155	0,053820409901054624	0,27434955391690365
1	1	0	0	0	0	2	666698,00	0,200000003	2,28184009	0,00055536251963261101	0,19992675281738198	0,000456200883	-1,380267256303975	0,051499627121764653	0,33655001357604563
1	1	0	0	0	0	2	667818,02	0,200000003	2,287745	0,00055535459760659277	0,19992390095320518	0,000457374903	-1,3180674875296294	0,049178870120315264	0,39874978235039123
1	1	0	0	0	0	2	668938,04	0,200000003	2,29376435	0,00055536595115148358	0,19992798815261616	0,000458587689	-1,2558670626194979	0,04685808863755753	0,46095020726052352
1	1	0	0	0	0	2	670058,06	0,200000003	2,29963112	0,00055535904010881978	0,19992550021233872	0,000459754898	-1,1936668525025576	0,044537315169022547	0,52315041737746394
1	1	0	0	0	0	2	671178,09	0,200000003	2,30589795	0,000555355077293184	0,19992407363713536	0,0004610045	-1,1314670357731338	0,042216556378304723	0,58535023410688922
1	1	0	0	0	0	2	672298,11	0,200000003	2,31256485	0,0005553553891364071	0,19992418589858765	0,000462337659	-1,069267022549371	0,039895790256118918	0,6475502473306505
1	1	0	0	0	0	2	673418,13	0,200000003	2,3193078	0,00055535024016019373	0,19992233229264835	0,000463681412	-1,0070670285719698	0,037575024852040742	0,7097502413080521
1	1	0	0	0	0	2	674538,15	0,200000003	2,32544136	0,00055536260545005402	0,1999267837227184	0,000464918005	-0,94486654809869235	0,035254241296147328	0,77195072178132966
1	1	0	0	0	0	2	675658,17	0,200000003	2,33003211	0,00055536444597774086	0,19992744630024371	0,000465837365	-0,88266586798980531	0,032933450291580896	0,8341514018902167
1	1	0	0	0	0	2	676778,19	0,200000003	2,33378458	0,0005553583643519216	0,19992525695140566	0,000466582482	-0,82046537643310157	0,030612666322149939	0,89635189344692045
1	1	0	0	0	0	2	677898,21	0,200000003	2,33584189	0,00055535326017191014	0,19992341948576048	0,000466989499	-0,75826596722843597	0,028291922736728768	0,95855130265158605
1	1	0	0	0	0	2	679018,23	0,200000003	2,33734655	0,00055535519553803738	0,19992411620448326	0,000467291946	-0,69606668986972826	0,025971184070657552	1,0207505800102934
1	1	0	0	0	0	2	680138,25	0,200000003	2,33871818	0,00055535382453352218	0,19992362264747098	0,000467564998	-0,63386687180153267	0,023650425229988352	1,0829503980784886
1	1	0	0	0	0	2	681258,27	0,200000003	2,34003234	0,00055535362494902477	0,19992355080305587	0,000467827573	-0,57166757278851507	0,021329685755965718	1,1451496970915069
1	1	0	0	0	0	2	682378,30	0,200000003	2,34132767	0,0005553652898131145	0,19992775007527395	0,000468096376	-0,5094675010821008	0,019008917451713555	1,2073497687979219
1	1	0	0	0	0	2	683498,32	0,200000003	2,34279442	0,00055536076395379168	0,19992612078720282	0,000468385813	-0,44726737172193242	0,016688146996322314	1,2695498981580904
1	1	0	0	0	0	2	684618,34	0,200000003	2,34388018	0,00055535342782818605	0,19992347984088646	0,000468596671	-0,38506750665770323	0,01436738640216791	1,3317497632223198
1	1	0	0	0	0	2	685738,36	0,200000003	2,34521341	0,0005553475467670295	0,19992136269862595	0,000468858256	-0,32286892771045946	0,01204667379476744	1,3939483421695635
1	1	0	0	0	0	2	686858,38	0,200000003	2,34738493	0,00055534472737378541	0,19992034772680774	0,000469290011	-0,2606702953654344	0,0097259591950239514	1,4561469745145898
1	1	0	0	0	0	2	687978,40	0,200000003	2,35016608	0,00055534977742946816	0,19992216572202461	0,000469850289	-0,19847109515582176	0,0074052234074892006	1,5183461747242032
1	1	0	0	0	0	2	689098,42	0,200000003	2,35365176	0,00055534165928430035	0,19991924324464269	0,000470540283	-0,13627230114697226	0,0050845027758510637	1,5805449687330518
1	1	0	0	0	0	2	690218,44	0,200000003	2,35723305	0,00055534876405861651	0,19992180090605898	0,00047126229	-0,074073478589600845	0,0027637810790291907	1,642743791290424
1	1	0	0	0	0	2	691338,46	0,200000003	2,36138535	0,00055536092501713178	0,19992617877822608	0,000472102751	-0,011873873093609021	0,00044303016971471834	1,704943396786415
1	1	0	0	0	0	2	692458,49	0,200000003	2,36618567	0,00055534950721677805	0,19992206844728282	0,000473052729	0,050325312899077274	-0,0018777050873673965	1,7671425827791011
1	1	0	0	0	0	2	693578,51	0,200000003	2,3706429	0,00055533895420614208	0,19991826942548278	0,000473934837	0,1125238004255512	-0,0041984142837360307	1,8293410703055747
1	1	0	0	0	0	2	694698,53	0,200000003	2,37635732	0,00055534449288745722	0,1999202633226241	0,000475081993	0,17472290174447184	-0,006519146381526103	1,8915401716244954
1	1	0	0	0	0	2	695818,55	0,200000003	2,38319564	0,00055535858202973997	0,19992533531860358	0,000476461195	0,23692232202194237	-0,0088398903800885171	1,9537395919019645
1	1	0	0	0	0	2	696637,84	0,200000003	2,38942456	0,0005153598000167145	0,19991999604158422	0,000477693742	0,28242106582795523	-0,010537509685202517	1,9992383357079763

File: S vs Li GCPL 300µm_02_GCPL_C06_loop10.txt
EC-Lab ASCII FILE
Nb header lines : 3
mode	ox/red	error	control changes	Ns changes	counter inc.	Ns	time/s	control/V/mA	Ewe/V	dq/mA.h	<I>/mA	P/W	(Q-Qo)/mA.h	x	Capacity/mA.h
1	0	0	1	1	0	1	696637,89	-0,200000003	2,35709953	0	0	0	0	0	0
1	0	0	1	0	0	1	697777,92	-0,200000003	2,26629663	-0,00055587304167532262	-0,20011053731327715	0,000453509827	-0,063366986002076442	0,002364307445556273	0,063366986002076442
1	0	0	1	0	0	1	698917,94	-0,200000003	2,24454355	-0,00055587621975524557	-0,20011168139357699	0,000449159386	-0,12673685243017594	0,00472872236368024	0,12673685243017594
1	0	0	1	0	0	1	700057,96	-0,200000003	2,22191429	-0,00055588320633520678	-0,20011419652212259	0,000444636593	-0,19010753332893328	0,0070931676707995187	0,19010753332893328
1	0	0	1	0	0	1	701197,98	-0,200000003	2,19395161	-0,00055589254367185971	-0,20011755790019741	0,00043904825	-0,2534790748812873	0,0094576450900616512	0,2534790748812873
1	0	0	1	0	0	1	702338,00	-0,200000003	2,14233088	-0,00055588905840863782	-0,20011630322200902	0,000428715342	-0,31685102827321811	0,011822137875612117	0,31685102827321811
1	0	0	1	0	0	1	703478,02	-0,200000003	2,01402187	-0,00055588207358121862	-0,20011378873834422	0,00040303354	-0,38022208976264141	0,014186597383080854	0,38022208976264141
1	0	0	1	0	0	1	704618,04	-0,200000003	1,8812747	-0,0005558801822240153	-0,20011310786253658	0,000376467739	-0,44359223708026387	0,016551022781570582	0,44359223708026387
1	0	0	1	0	0	1	705758,07	-0,200000003	1,86594093	-0,00055587764770040902	-0,20011219544651248	0,000373397546	-0,50696274828740051	0,018915461757267341	0,50696274828740051
1	0	0	1	0	0	1	706898,09	-0,200000003	1,87571263	-0,00055589132012012941	-0,2001171174298457	0,0003753622	-0,57033314571654682	0,021279896487754301	0,57033314571654682
1	0	0	1	0	0	1	708038,11	-0,200000003	1,87413168	-0,00055587185739311904	-0,2001101109796896	0,000375032687	-0,63370318180482304	0,023644317736127574	0,63370318180482304
1	0	0	1	0	0	1	709178,13	-0,200000003	1,87826514	-0,0005558735168029865	-0,20011070835602432	0,000375860982	-0,69707277365345178	0,02600872240932231	0,69707277365345178
1	0	0	1	0	0	1	710318,15	-0,200000003	1,8927418	-0,00055587822834319539	-0,2001124044786496	0,00037876112	-0,7604431296665641	0,02837315559452136	0,7604431296665641
1	0	0	1	0	0	1	711458,17	-0,200000003	1,9078089	-0,0005558767552094327	-0,20011187416045341	0,0003817752	-0,823812734197216	0,03073756074089943	0,823812734197216
1	0	0	1	0	0	1	712598,19	-0,200000003	1,92110455	-0,00055586524468908717	-0,20010773044162176	0,000384427869	-0,88718168313777818	0,033101941426329805	0,88718168313777818
1	0	0	1	0	0	1	713738,22	-0,200000003	1,93670511	-0,00055587395045823526	-0,20011086446898237	0,000387555745	-0,95055040746519168	0,035466313731141613	0,95055040746519168
1	0	0	1	0	0	1	714878,24	-0,200000003	1,94792449	-0,00055587420469191341	-0,2001109559913879	0,000389801047	-1,013920202371176	0,037830725980679296	1,013920202371176
1	0	0	1	0	0	1	716018,26	-0,200000003	1,9594487	-0,00055586867067880096	-0,20010896378407722	0,000392103248	-1,0772894077787904	0,040195116235240211	1,0772894077787904
1	0	0	1	0	0	1	717158,28	-0,200000003	1,97386813	-0,0005558746994990441	-0,20011113411861005	0,000394992996	-1,1406586738941325	0,04255950875488807	1,1406586738941325
1	0	0	1	0	0	1	718298,30	-0,200000003	1,98474467	-0,00055587160301374074	-0,20011001940483296	0,000397167285	-1,2040282395722752	0,04492391245162679	1,2040282395722752
1	0	0	1	0	0	1	719438,32	-0,200000003	1,99350691	-0,00055587156020022106	-0,20011000399225533	0,000398920674	-1,2673975083762024	0,04728830507158937	1,2673975083762024
1	0	0	1	0	0	1	720578,34	-0,200000003	2,0004406	-0,00055588020582745485	-0,20011311635961523	0,000400314399	-1,3307669677415576	0,049652704801655053	1,3307669677415576
1	0	0	1	0	0	1	721718,37	-0,200000003	2,00310731	-0,00055588198633160858	-0,2001137573290744	0,000400849327	-1,3941372425949867	0,052017134958677197	1,3941372425949867
1	0	0	1	0	0	1	722858,39	-0,200000003	2,00204062	-0,00055588430623958509	-0,20011459248026346	0,000400637538	-1,4575075212563002	0,054381565257776634	1,4575075212563002
1	0	0	1	0	0	1	723998,41	-0,200000003	2,00028825	-0,00055589086746507226	-0,20011695447708506	0,000400291581	-1,5208780488629338	0,056746004845360672	1,5208780488629338
1	0	0	1	0	0	1	725138,43	-0,200000003	1,99259257	-0,00055586455787056019	-0,20010748320091302	0,000398732693	-1,5842478636636608	0,059110417837197952	1,5842478636636608
1	0	0	1	0	0	1	726278,45	-0,200000003	1,96636319	-0,00055586967303189971	-0,20010932462441686	0,0003934876	-1,6476165498557219	0,061474788719128499	1,6476165498557219
1	0	0	1	0	0	1	727418,47	-0,200000003	1,85885501	-0,00055587699961413946	-0,20011196214449565	0,000371979113	-1,7109856135595642	0,063839173686531136	1,7109856135595642
1	1	0	0	0	0	2	728546,66	0,200000003	2,3057456	0,0005553529691273968	0,19992331471170314	0,000460972311	-1,7525843687500874	0,065391279172810765	0,010551678428872589
1	1	0	0	0	0	2	729686,68	0,200000003	2,27271605	0,00055535108176370458	0,19992263527353245	0,000454367371	-1,6892741464912822	0,06302908965883561	0,073861900687677158
1	1	0	0	0	0	2	730826,70	0,200000003	2,26761103	0,00055536441802399021	0,19992743623708246	0,000453357672	-1,6259627826854045	0,060666857552204352	0,13717326449355477
1	1	0	0	0	0	2	731966,72	0,200000003	2,27058244	0,00055534867796219059	0,19992176992123709	0,000453938846	-1,5626516417364826	0,058304633760665741	0,20048440544247632
1	1	0	0	0	0	2	733106,74	0,200000003	2,27585888	0,00055535087072518131	0,19992255929178128	0,000454995519	-1,4993415170571837	0,055942447887513158	0,26379453012177507
1	1	0	0	0	0	2	734246,76	0,200000003	2,28163052	0,00055535507530884608	0,1999240729227871	0,000456152862	-1,4360307445623246	0,053580237843491027	0,32710530261663354
1	1	0	0	0	0	2	735386,79	0,200000003	2,28803062	0,0005553677769982153	0,1999286454450969	0,00045744286	-1,3727196107770394	0,051218014319237344	0,39041643640191878
1	1	0	0	0	0	2	736526,81	0,200000003	2,29416418	0,00055536772752470438	0,1999286276256577	0,000458669092	-1,3094078718376546	0,04885576821587056	0,45372817534130336
1	1	0	0	0	0	2	737666,83	0,200000003	2,30043101	0,00055536982887817747	0,19992938410801261	0,000459923758	-1,2460960745857517	0,046493519936785325	0,51703997259320589
1	1	0	0	0	0	2	738806,85	0,200000003	2,30688858	0,0005553732736193472	0,19993062419154733	0,000461217685	-1,1827840059532138	0,044131261532123725	0,58035204122574323
1	1	0	0	0	0	2	739946,87	0,200000003	2,31347919	0,00055537312159273357	0,1999305694583392	0,000462535216	-1,1194718294984747	0,041768999104470829	0,64366421768048064
1	1	0	0	0	0	2	741086,89	0,200000003	2,31991744	0,00055537303502195405	0,19993053829809872	0,000463822333	-1,0561602749405771	0,039406759880625242	0,70697577223837773
1	1	0	0	0	0	2	742226,91	0,200000003	2,32595587	0,00055537411533544461	0,19993092720365245	0,00046503052	-0,99284782206964211	0,037044487139512429	0,77028822510931264
1	1	0	0	0	0	2	743366,94	0,200000003	2,33098459	0,0005553679043923815	0,19992869129915325	0,000466030702	-0,92953521209082611	0,034682208536493344	0,83360083508812864
1	1	0	0	0	0	2	744506,96	0,200000003	2,33467984	0,00055537906177176365	0,19993270788728947	0,000466778874	-0,86622275419058214	0,032319935607730246	0,89691329298837261
1	1	0	0	0	0	2	745646,98	0,200000003	2,33723235	0,00055537047670698822	0,19992961732200518	0,000467281963	-0,80291077262191194	0,029957680451538611	0,96022527455704282
1	1	0	0	0	0	2	746787,00	0,200000003	2,33928943	0,00055537491089933446	0,19993121359429238	0,000467696984	-0,73959871701220902	0,02759542253277649	1,0235373301667451
1	1	0	0	0	0	2	747927,02	0,200000003	2,34113717	0,00055537858776665395	0,19993253724865427	0,000468069484	-0,67628622219409357	0,025233148226557978	1,0868498249848597
1	1	0	0	0	0	2	749067,04	0,200000003	2,34260392	0,00055536897845069568	0,19992907795986806	0,000468354643	-0,61297383734623373	0,022870878023477558	1,150162209832719
1	1	0	0	0	0	2	750207,06	0,200000003	2,3439374	0,00055536786460545331	0,19992867697612806	0,000468620303	-0,54966155026625382	0,020508611468248192	1,2134744969126989
1	1	0	0	0	0	2	751347,09	0,200000003	2,34530878	0,00055537090893586477	0,19992977292147888	0,000468897051	-0,4863494878412144	0,018146353295196704	1,2767865593377387
1	1	0	0	0	0	2	752487,11	0,200000003	2,34650874	0,00055537110270145869	0,19992984267578285	0,000469137129	-0,42303699830923386	0,015784079186210995	1,340099048869719
1	1	0	0	0	0	2	753627,13	0,200000003	2,34818506	0,00055538271138568723	0,19993402171897568	0,000469482096	-0,35972389853371027	0,01342178230821821	1,4034121486452429
1	1	0	0	0	0	2	754767,15	0,200000003	2,35073757	0,00055537749501731667	0,19993214386627978	0,000469988008	-0,29641068072082541	0,011059481026092773	1,4667253664581286
1	1	0	0	0	0	2	755907,17	0,200000003	2,35323286	0,00055537068587541581	0,19992969262122515	0,000470481114	-0,23309759625142589	0,0086971847191920589	1,5300384509275283
1	1	0	0	0	0	2	757047,19	0,200000003	2,35647106	0,00055537654845250976	0,19993180310003818	0,000471133506	-0,16978490901998365	0,0063349032337736192	1,593351138158969
1	1	0	0	0	0	2	758187,21	0,200000003	2,36033773	0,0005553770398447911	0,19993198000724755	0,000471906998	-0,1064717995676161	0,003972605994724777	1,6566642476113366
1	1	0	0	0	0	2	759327,24	0,200000003	2,36509991	0,00055537401322192614	0,19993089044347606	0,00047285654	-0,043158970074588486	0,0016103192013353168	1,7199770771043645
1	1	0	0	0	0	2	760467,26	0,200000003	2,3706429	0,00055538122265703149	0,19993348578206838	0,000473970897	0,020154333079204541	-0,0007519852649741449	1,7832903802581571
1	1	0	0	0	0	2	761607,28	0,200000003	2,37692881	0,0005553702703971001	0,1999295430518401	0,000475218287	0,083467035983906586	-0,0031142673351829786	1,8466030831628611
1	1	0	0	0	0	2	762747,30	0,200000003	2,38422418	0,00055537599448611334	0,19993160368519014	0,000476681773	0,14677991280652637	-0,0054765558945031578	1,9099159599854794
1	1	0	0	0	0	2	763887,32	0,200000003	2,39285302	0,00055537525444974502	0,19993133727710019	0,000478406291	0,21009277083540429	-0,007838843752603561	1,9732288180143574
1	1	0	0	0	0	2	764356,61	0,200000003	2,39702463	0,00051538834074719085	0,19993106793751651	0,000479239709	0,2361553915281673	-0,0088112751722167552	1,9992914387071206