Folder: thesis/Experimentelles/Rohdaten/Batterietests/AlteZelle/Studenten_Batterietests/LLTO_LP30_Li CV/ECLab-Export

Note: README.md
# thesis

Zusammenfassung
---------------
Es konnten die Festkörperelektrolytkeramiken LATP, LAGP, LTO und LLTO hergestellt,
mit XRD und MAS-NMR charakterisiert und zu Elektrodensuspensionen weiterverarbeitet
werden. Aus den Daten der MAS-NMR konnten dabei gegenüber der XRD keine Mehrinfor-
mationen gewonnen werden. Die mit den Suspensionen gegossenen und gestanzten Elektro-
denproben wurden mittels REM und EDX untersucht und als Kathode in Testzellen verbaut.
Mit diesen wurden Ladekennlinien erstellt und eine zyklischer Voltametrie durchgeführt. Aus
den Ladekennlinien konnten die Kapazitäten und der Grad der Lithiuminsertation in die
Materialen bestimmt werden. Die zyklische Voltametrie lieferte nicht-reaktive Spannungsbe-
reiche der Materialien.

Für ein noch besseres Verständnis der Lithiumbewegung und -insertation wurde eine in-situ
NMR-Testzelle konzipiert, konstruiert, gebaut und getestet. Für den Test kam dabei eine
Lithium-Schwefel-Zelle zum Einsatz, für welche ein Di?usionskoe?zient sowie ein Spektrum
vor und nach einer 90 minütigen Ladezeit aufgenommen worden ist.

Abstract
--------
The all solid state electrolyte ceramics LATP, LAGP, LTO, and LLTO were successfully
synthesized and characterized by using XRD. MAS-NMR spectroscopy were not able to ge-
nerate additional information. All powders were processed to electrode slurries, casted on
aluminum foils and punched to electrode samples. Those samples were studied by SEM and
EDX and then build into battery test cells. The cells were analyzed by measuring the charge
curves as well as cyclic voltammetry. With the charge curves capacities and the amount of
lithium insertion were calculated. The cyclic voltammetry was able to detect non-reactive
voltage regions.

To be able to better understand lithium movement and insertion a novel in-situ NMR sample
cell was designed, constructed, built and tested. Therefore, a lithium-sulfur-cell was built into
the in-situ sample cell. With this setting a diffusion coeffcient as well as a NMR spectrum
before and after 90 minutes of charging were measured.

File: LLTO_LP30_Li_01_OCV_C01_loop0.mpt
EC-Lab ASCII FILE
Nb header lines : 3
mode	error	time/s	Ewe/V
3	0	0,00	2,10877657
3	0	5,00	2,10879564
3	0	10,00	2,10873842
3	0	15,00	2,10873842
3	0	20,00	2,10877657
3	0	25,00	2,10870004
3	0	30,00	2,10877657
3	0	35,00	2,10870004
3	0	40,00	2,10879564
3	0	45,00	2,10879564
3	0	50,00	2,10879564
3	0	55,00	2,10885286
3	0	60,00	2,10879564
3	0	65,00	2,10873842
3	0	70,00	2,10877657
3	0	75,00	2,1087575
3	0	80,00	2,10873842
3	0	85,00	2,10883379
3	0	90,00	2,10868096
3	0	95,00	2,10870004
3	0	100,00	2,1087575
3	0	105,00	2,10873842
3	0	110,00	2,10870004
3	0	115,00	2,10871935
3	0	120,00	2,10870004
3	0	125,00	2,10870004
3	0	130,00	2,10871935
3	0	135,00	2,10881472
3	0	140,00	2,10879564
3	0	145,00	2,1087575
3	0	150,00	2,1087575
3	0	155,00	2,10879564
3	0	160,00	2,10868096
3	0	165,00	2,10870004
3	0	170,00	2,10864282
3	0	175,00	2,10868096
3	0	180,00	2,10879564
3	0	185,00	2,10877657
3	0	190,00	2,1087575
3	0	195,00	2,10870004
3	0	200,00	2,1087575
3	0	205,00	2,10868096
3	0	210,00	2,1087575
3	0	215,00	2,10870004
3	0	220,00	2,10862374
3	0	225,00	2,10866189
3	0	230,00	2,1087575
3	0	235,00	2,10873842
3	0	240,00	2,10866189
3	0	245,00	2,10860467
3	0	250,00	2,10856652
3	0	255,00	2,10868096
3	0	260,00	2,10866189
3	0	265,00	2,1085856
3	0	270,00	2,10864282
3	0	275,00	2,10860467
3	0	280,00	2,10864282
3	0	285,00	2,10868096
3	0	290,00	2,10871935
3	0	295,00	2,10868096
3	0	300,00	2,10868096
3	0	305,00	2,10860467
3	0	310,00	2,10870004
3	0	315,00	2,10854745
3	0	320,00	2,10866189
3	0	325,00	2,10862374
3	0	330,00	2,10866189
3	0	335,00	2,1085856
3	0	340,00	2,10860467
3	0	345,00	2,10868096
3	0	350,00	2,10866189
3	0	355,00	2,10868096
3	0	360,00	2,10860467
3	0	365,00	2,1085856
3	0	370,00	2,10864282
3	0	375,00	2,10864282
3	0	380,00	2,10862374
3	0	385,00	2,10866189
3	0	390,00	2,10871935
3	0	395,00	2,10868096
3	0	400,00	2,10854745
3	0	405,00	2,10866189
3	0	410,00	2,10848999
3	0	415,00	2,10864282
3	0	420,00	2,10847092
3	0	425,00	2,1085856
3	0	430,00	2,10848999
3	0	435,00	2,10852838
3	0	440,00	2,10870004
3	0	445,00	2,10845184
3	0	450,00	2,10856652
3	0	455,00	2,10856652
3	0	460,00	2,10868096
3	0	465,00	2,10852838
3	0	470,00	2,10852838
3	0	475,00	2,1085856
3	0	480,00	2,10856652
3	0	485,00	2,10847092
3	0	490,00	2,10860467
3	0	495,00	2,10860467
3	0	500,00	2,1085856
3	0	505,00	2,10852838
3	0	510,00	2,1085856
3	0	515,00	2,10847092
3	0	520,00	2,10852838
3	0	525,00	2,10847092
3	0	530,00	2,10862374
3	0	535,00	2,1085093
3	0	540,00	2,10862374
3	0	545,00	2,10862374
3	0	550,00	2,10848999
3	0	555,00	2,10860467
3	0	560,00	2,10843277
3	0	565,00	2,10852838
3	0	570,00	2,10845184
3	0	575,00	2,10852838
3	0	580,00	2,10856652
3	0	585,00	2,10845184
3	0	590,00	2,10847092
3	0	595,00	2,1085093
3	0	600,00	2,10839462

File: LLTO_LP30_Li_02_CV_C01_loop2.mpt
EC-Lab ASCII FILE
Nb header lines : 3
mode	ox/red	error	control changes	counter inc.	time/s	control/V	Ewe/V	<I>/mA	cycle number	(Q-Qo)/C	P/W
2	0	0	1	0	2080,30	2,10933256	2,10988975	-0,046189095824956896	3	0	9,74538998E-005
2	0	0	0	0	2086,53	2,04702735	2,04755664	-0,045134317896251219	3	-0,000274230784	9,24150736E-005
2	0	0	0	0	2092,78	1,98452246	1,98484313	-0,04776891058039223	3	-0,000566011935	9,48137967E-005
2	0	0	1	0	2099,03	1,92201769	1,92271113	-0,05073061094541753	3	-0,000875333906	9,75403091E-005
2	0	0	1	0	2105,28	1,85951293	1,86007798	-0,054004051218119712	3	-0,00120392931	0,000100451747
2	0	0	1	0	2111,53	1,79700804	1,79720402	-0,058377708502424294	3	-0,00155614852	0,000104916653
2	0	0	0	0	2117,78	1,73450327	1,73468101	-0,064119475505625357	3	-0,00193942664	0,000111226836
2	0	0	0	0	2124,03	1,6719985	1,67263925	-0,072179916198365389	3	-0,00236660475	0,000120730961
2	0	0	0	0	2130,28	1,60949397	1,60998583	-0,082083954572832627	3	-0,00284932321	0,000132154004
2	0	0	1	0	2136,57	1,54658914	1,5469017	-0,10279993336492542	3	-0,0034227944	0,000159021394
2	0	0	1	0	2142,82	1,48408437	1,48441875	-0,16816140889810992	3	-0,00423584785	0,000249621953
2	0	0	0	0	2149,07	1,4215796	1,42201591	-0,30556970842493139	3	-0,00568445213	0,000434524991
2	0	0	0	0	2155,32	1,35907483	1,35938263	-0,48213878134265542	3	-0,00814008527	0,000655411102
2	0	0	0	0	2161,57	1,29656994	1,29703021	-0,65804769610985933	3	-0,0117118452	0,000853507721
2	0	0	1	0	2167,82	1,23406518	1,23437679	-0,82776590219388352	3	-0,0163474437	0,00102177507
2	0	0	1	0	2174,11	1,17116046	1,17163336	-1,0044400915503485	3	-0,0221342631	0,0011768355
2	0	0	0	0	2180,36	1,10865569	1,10911036	-1,1237472534800546	3	-0,0288221482	0,00124635966
2	0	0	0	0	2186,62	1,0461508	1,04665756	-1,183746652367212	3	-0,0360637307	0,00123897742
2	0	0	0	0	2192,87	0,983646214	0,983853877	-1,1900331921254677	3	-0,0435155481	0,00117081881
2	0	0	1	0	2199,12	0,921141446	0,921631575	-1,1347520106161646	3	-0,0508137792	0,00104582333
2	0	0	1	0	2205,37	0,858636618	0,858797848	-1,0845530815422571	3	-0,057691399	0,000931411865
2	1	0	0	0	2211,56	0,803332388	0,803522527	-1,1730554004510277	3	-0,064770259	0,000942576444
2	1	0	0	0	2217,85	0,866237164	0,866697252	-0,42149893225480992	3	-0,0695631802	0,000365311978
2	1	0	0	0	2224,14	0,929142058	0,9296211	0,073711269612734669	3	-0,0705706626	6,852355E-005
2	1	0	1	0	2230,43	0,992046714	0,992434919	0,45035766499737926	3	-0,0688727945	0,000446950668
2	1	0	1	0	2236,68	1,05455148	1,05486763	0,57696531387045978	3	-0,0654165745	0,000608622038
2	1	0	0	0	2242,93	1,11705625	1,1175108	0,53189160690332749	3	-0,0620257184	0,000594394631
2	1	0	0	0	2249,18	1,17956102	1,1802243	0,60221147242312486	3	-0,0585140251	0,000710744585
2	1	0	0	0	2255,43	1,24206579	1,24261713	0,71114940320451763	3	-0,0544150248	0,000883686414
2	1	0	1	0	2261,68	1,30457067	1,30499971	0,81722917159398272	3	-0,0496273376	0,00106648379
2	1	0	1	0	2267,93	1,36707544	1,36738241	0,90630332566797018	3	-0,0442258269	0,00123926322
2	1	0	0	0	2274,18	1,42958021	1,43010581	0,97298743606855526	3	-0,0383438803	0,00139147497
2	1	0	0	0	2280,46	1,49238491	1,49268889	1,1094276141375339	3	-0,0318506993	0,0016560303
2	1	0	0	0	2286,71	1,55488968	1,55520189	1,1844564853236133	3	-0,0245811939	0,00184206897
2	1	0	1	0	2292,96	1,61739457	1,61800551	0,94150527442494797	3	-0,0177205764	0,00152336073
2	1	0	1	0	2299,25	1,68029916	1,68079913	0,34978080238215622	3	-0,0134913437	0,000587911287
2	1	0	0	0	2305,50	1,74280405	1,7434926	0,09060657666608041	3	-0,012499894	0,000157971896
2	1	0	0	0	2311,76	1,80530882	1,80566478	0,069067711612054822	3	-0,0120099299	0,000124713129
2	1	0	0	0	2318,01	1,86781359	1,86830807	0,058947263033284352	3	-0,0116105201	0,000110131645
2	1	0	1	0	2324,26	1,93031836	1,9308511	0,053321616995769094	3	-0,0112588862	0,000102956103
2	1	0	1	0	2330,51	1,99282312	1,99327385	0,049968709761742502	3	-0,0109351957	9,96013259E-005
2	1	0	0	0	2336,80	2,05572772	2,0561676	0,047798466538855053	3	-0,0106263282	9,82816564E-005
2	1	0	0	0	2343,05	2,11823249	2,11861038	0,046302819129778074	3	-0,0103314789	9,80976329E-005
2	1	0	0	0	2349,30	2,18073726	2,18123364	0,045525077856533728	3	-0,0100437263	9,93008289E-005
2	1	0	1	0	2355,55	2,24324203	2,24367642	0,045207577951562995	3	-0,00975934416	0,000101431178
2	1	0	1	0	2361,80	2,30574679	2,30624962	0,045450677260911789	3	-0,00947504211	0,00010482061
2	1	0	1	0	2368,05	2,36825109	2,36856174	0,046217166859393587	3	-0,00918691419	0,000109468216
2	1	0	0	0	2374,30	2,43075657	2,43133569	0,047232660464942458	3	-0,00889320672	0,000114838454
2	1	0	0	0	2380,55	2,49326134	2,49362826	0,04942884267074976	3	-0,00858911406	0,000123257152
2	1	0	1	0	2386,80	2,55576611	2,55633163	0,051245352350330451	3	-0,00827314518	0,00013100011
2	1	0	1	0	2393,05	2,61827087	2,61892462	0,053554231281547571	3	-0,00794422254	0,000140254488
2	1	0	0	0	2399,30	2,68077588	2,68138838	0,056134124716379238	3	-0,00759990793	0,000150517386
2	1	0	0	0	2405,55	2,74328041	2,74382019	0,059082010198229453	3	-0,00723795407	0,000162110417
2	1	0	0	0	2411,80	2,80578518	2,8062129	0,062132724929445658	3	-0,00685726851	0,000174357658
2	1	0	1	0	2418,05	2,86828995	2,86873603	0,065387217308549683	3	-0,00645679189	0,000187578669
2	1	0	1	0	2424,30	2,93079472	2,93132901	0,068852782618098854	3	-0,00603493582	0,00020183016
2	1	0	1	0	2430,55	2,99329853	2,99377012	0,072772459377149824	3	-0,00559030985	0,000217864013
2	1	0	0	0	2436,80	3,05580401	3,05618477	0,07754761830437929	3	-0,00511926739	0,000236999855
2	1	0	0	0	2443,06	3,11830902	3,11868787	0,082809461338911091	3	-0,00461719092	0,000258256856
2	1	0	1	0	2449,31	3,18081379	3,18126082	0,088992430343447834	3	-0,00407982804	0,000283108122
2	1	0	1	0	2455,56	3,24331856	3,24416447	0,096762470163715085	3	-0,00349923177	0,000313913362
2	1	0	1	0	2461,85	3,30622339	3,3066175	0,10758457608365734	3	-0,0028567072	0,000355741038
2	1	0	0	0	2468,10	3,36872816	3,36938071	0,12234399149504771	3	-0,00213839766	0,000412223482
2	1	0	0	0	2474,35	3,43123293	3,43176341	0,1416592785778139	3	-0,00131325808	0,000486141129
2	1	0	1	0	2480,60	3,49373722	3,49423647	0,16411590265731024	3	-0,000356831995	0,00057345978
2	1	0	1	0	2486,85	3,55624199	3,55673933	0,19146110051466726	3	0,000753988978	0,000680977246
2	1	0	1	0	2493,10	3,618747	3,61918235	0,22377550648525347	3	0,00205193995	0,000809884339
2	1	0	0	0	2499,35	3,68125176	3,68174529	0,25149676785804333	3	0,00354607776	0,000925947039
2	1	0	0	0	2505,60	3,74375653	3,74428844	0,26785957153576189	3	0,00517471367	0,00100294349
2	1	0	1	0	2511,85	3,8062613	3,80682158	0,28163736422235664	3	0,00689365342	0,0010721432
2	1	0	1	0	2518,10	3,86876607	3,86909389	0,29743642491909216	3	0,00870330259	0,00115080946
2	1	0	1	0	2524,35	3,93127084	3,93153644	0,31589098748130163	3	0,0106199263	0,00124193693
2	1	0	0	0	2530,60	3,99377584	3,99456096	0,33664107392542138	3	0,0126605872	0,00134473329
2	1	0	0	0	2536,85	4,05628061	4,05680275	0,35689628318262611	3	0,014830756	0,00144785782
2	1	0	1	0	2543,10	4,11878538	4,11925602	0,37155043217353434	3	0,0171153955	0,0015305113
2	1	0	1	0	2549,35	4,18129015	4,18205929	0,38176780473440838	3	0,0194685459	0,0015965756
2	0	0	0	1	2555,55	4,15668821	4,15705824	0,18677483196370371	3	0,0213118102	0,000776433852
2	0	0	0	1	2561,80	4,09418344	4,09469604	0,096343154339895603	3	0,0221489184	0,000394495932
2	0	0	1	1	2568,06	4,0316782	4,03217411	0,055124688062043738	3	0,0226071849	0,000222272341
2	0	0	1	1	2574,35	3,9687736	3,96920872	0,031296269085335782	3	0,0228713676	0,00012422142
2	0	0	1	1	2580,60	3,90626884	3,90693641	0,016263425156163706	3	0,023015162	6,35401666E-005
2	0	0	0	1	2586,85	3,84376454	3,8442831	0,0064138447584506381	3	0,0230824649	2,46566342E-005
2	0	0	0	1	2593,14	3,78085971	3,78120875	-0,00049474284545188672	3	0,0230987184	1,87072601E-006
2	0	0	1	1	2599,39	3,7183547	3,71891618	-0,0054749270238971802	3	0,0230788887	2,03607942E-005
2	0	0	1	1	2605,68	3,65544987	3,65592194	-0,0097918479004874829	3	0,0230295006	3,57982317E-005
2	0	0	1	1	2611,93	3,5929451	3,59365964	-0,01372468685440259	3	0,0229540057	4,9321854E-005
2	0	0	0	1	2618,18	3,53044033	3,5310967	-0,016607871022036618	3	0,0228565373	5,86440001E-005
2	0	0	0	1	2624,43	3,46793556	3,46829295	-0,019072565793370243	3	0,0227428209	6,6149245E-005
2	0	0	1	1	2630,68	3,40543079	3,40612078	-0,020895473746350022	3	0,0226163827	7,11725079E-005
2	0	0	1	1	2636,93	3,34292603	3,34338713	-0,02257959036311752	3	0,0224789102	7,54923094E-005
2	0	0	1	1	2643,18	3,28042126	3,28068376	-0,024195660463495526	3	0,0223310702	7,93783111E-005
2	0	0	0	1	2649,43	3,21791649	3,21831131	-0,025651500114084512	3	0,0221734829	8,25545139E-005
2	0	0	0	1	2655,68	3,15541172	3,15585876	-0,026937209603299094	3	0,0220071152	8,50100259E-005
2	0	0	1	1	2661,93	3,09290695	3,09349632	-0,028010961766898102	3	0,0218331888	8,66518094E-005
2	0	0	1	1	2668,18	3,03040242	3,03081274	-0,028740089367299085	3	0,0216532741	8,71058292E-005
2	0	0	1	1	2674,43	2,96789742	2,96819949	-0,029501824397205722	3	0,0214688461	8,75672995E-005
2	0	0	0	1	2680,68	2,90539289	2,90579677	-0,029972761248548864	3	0,0212811437	8,70947551E-005
2	0	0	0	1	2686,93	2,84288788	2,84336376	-0,030343760319131885	3	0,0210910793	8,6278349E-005
2	0	0	0	1	2693,19	2,78038335	2,78081131	-0,030511901511955373	3	0,0208996627	8,48478376E-005
2	0	0	1	1	2699,44	2,71787834	2,71810746	-0,030623964519084749	3	0,0207075253	8,32392252E-005
2	0	0	1	1	2705,69	2,65537357	2,6556747	-0,030754401823893773	3	0,0205147639	8,16736865E-005
2	0	0	0	1	2711,94	2,5928688	2,59336233	-0,031059911930545606	3	0,0203205012	8,0549602E-005
2	0	0	0	1	2718,19	2,53036404	2,53072882	-0,031812316301511603	3	0,0201226976	8,05083473E-005
2	0	0	1	1	2724,44	2,46785855	2,46841574	-0,032828872221423168	3	0,0199188702	8,10353013E-005
2	0	0	1	1	2730,69	2,40535474	2,4055829	-0,034460228819322534	3	0,0197067317	8,28969351E-005
2	0	0	1	1	2736,94	2,34284973	2,3433404	-0,036057550751138394	3	0,019484954	8,44951137E-005
2	0	0	0	1	2743,19	2,28034496	2,28090763	-0,037820144896007437	3	0,0192525089	8,62642555E-005
2	0	0	0	1	2749,44	2,21784019	2,21829438	-0,039648764388403034	3	0,0190086793	8,79526342E-005
2	0	0	0	1	2755,69	2,15533543	2,15572143	-0,041668807185487821	3	0,0187527668	8,98263388E-005
2	0	0	1	1	2760,25	2,10963273	2,11037087	-0,043754194370087456	3	0,0185577311	9,23375774E-005

File: LLTO_LP30_Li_02_CV_C01_loop5.mpt
EC-Lab ASCII FILE
Nb header lines : 3
mode	ox/red	error	control changes	counter inc.	time/s	control/V	Ewe/V	<I>/mA	cycle number	(Q-Qo)/C	P/W
2	0	0	1	0	4080,59	2,11093283	2,11141348	-0,048592485487461088	6	0	0,000102598831
2	0	0	0	0	4086,67	2,05012751	2,05069423	-0,04530126280345337	6	-0,000269822864	9,28990412E-005
2	0	0	0	0	4092,77	1,98912275	1,98950469	-0,047741446789586778	6	-0,000555025239	9,4981835E-005
2	0	0	0	0	4098,87	1,92811835	1,92870605	-0,050302769775347117	6	-0,000855857274	9,70192559E-005
2	0	0	1	0	4104,97	1,86711371	1,86768675	-0,05333107915551705	6	-0,0011735938	9,96057497E-005
2	0	0	1	0	4111,07	1,80610895	1,80639672	-0,057145536896617613	6	-0,00151163689	0,00010322751
2	0	0	1	0	4117,17	1,74510431	1,74557781	-0,062508066223623923	6	-0,00187688076	0,000109112691
2	0	0	0	0	4123,27	1,68409979	1,68440819	-0,070026822679210701	6	-0,00228148908	0,00011795375
2	0	0	0	0	4129,37	1,62309515	1,62354946	-0,078780023458724365	6	-0,00273621641	0,000127903259
2	0	0	0	0	4135,47	1,5620904	1,5623095	-0,095597574855977421	6	-0,00326262834	0,000149353
2	0	0	1	0	4141,61	1,50068569	1,50115979	-0,14675118141652387	6	-0,0039787814	0,000220296977
2	0	0	1	0	4147,71	1,43968117	1,44028091	-0,26759315235540272	6	-0,00520957261	0,000385409308
2	0	0	1	0	4153,81	1,3786763	1,37895083	-0,4365952913649383	6	-0,00734782359	0,000602043467
2	0	0	0	0	4159,91	1,31767178	1,31809175	-0,61178893347581338	6	-0,010551258	0,000806393975
2	0	0	0	0	4166,01	1,25666702	1,25699234	-0,77474092521394061	6	-0,0147857592	0,000973843387
2	0	0	0	0	4172,12	1,19566226	1,19594288	-0,95353761687875149	6	-0,0200617258	0,00114037655
2	0	0	1	0	4178,26	1,13425756	1,13465297	-1,0895567958553584	6	-0,0263690948	0,0012362689
2	0	0	1	0	4184,36	1,07325304	1,07390416	-1,1655035363510216	6	-0,0332762711	0,0012516391
2	0	0	1	0	4190,46	1,0122484	1,01265442	-1,1913385493680826	6	-0,0404922515	0,00120641431
2	0	0	0	0	4196,56	0,951243818	0,951785445	-1,1609045689304658	6	-0,0476997532	0,00110493205
2	1	0	1	0	4202,61	0,90934056	0,909752667	-0,91483042916904013	6	-0,0544264875	0,000832269434
2	1	0	1	0	4208,75	0,970745265	0,97126317	-0,21111242403276291	6	-0,0575764403	0,000205045726
2	1	0	1	0	4214,93	1,03254998	1,03298426	0,12284637595682078	6	-0,0577336028	0,000126898376
2	1	0	0	0	4221,03	1,0935545	1,09417391	0,31409340817481235	6	-0,0563594699	0,000343672815
2	1	0	0	0	4227,13	1,15455925	1,15502274	0,45941459216798285	6	-0,0539851412	0,000530634308
2	1	0	0	0	4233,23	1,21556389	1,21592176	0,59130204034348429	6	-0,0507732853	0,000718977011
2	1	0	1	0	4239,33	1,27656865	1,27711165	0,71284861924747571	6	-0,0467848182	0,000910387258
2	1	0	1	0	4245,43	1,33757329	1,33821106	0,81468481632570368	6	-0,0421123281	0,00109022018
2	1	0	1	0	4251,53	1,39857793	1,39892972	0,89316689036786381	6	-0,0368901864	0,00124947773
2	1	0	0	0	4257,63	1,45958257	1,45999908	0,98635761874417318	6	-0,03120666	0,00144008116
2	1	0	0	0	4263,76	1,52088726	1,52131915	1,1274081741770115	6	-0,0246768184	0,00171514763
2	1	0	0	0	4269,86	1,58189178	1,5822984	1,0709724640473723	6	-0,0178102348	0,001694598
2	1	0	1	0	4275,96	1,64289653	1,64347804	0,65898684582983514	6	-0,012372179	0,00108303037
2	1	0	1	0	4282,10	1,70430124	1,70484817	0,10215541561289354	6	-0,0102175074	0,000174159475
2	1	0	1	0	4288,20	1,76530588	1,76587749	0,054253725994688698	6	-0,00979542173	9,58054297E-005
2	1	0	0	0	4294,35	1,82671058	1,82728779	0,044801696116337555	6	-0,00949353818	8,18655899E-005
2	1	0	0	0	4300,45	1,88771522	1,88824701	0,040631723095430035	6	-0,00923295785	7,6722732E-005
2	1	0	0	0	4306,55	1,94871974	1,94924641	0,038722793979104608	6	-0,00899055786	7,54802677E-005
2	1	0	1	0	4312,65	2,00972462	2,01017523	0,037875312555115501	6	-0,00875609368	7,61360134E-005
2	1	0	1	0	4318,75	2,07072926	2,07115459	0,0376192223726928	6	-0,00852452684	7,79152251E-005
2	1	0	0	0	4324,85	2,13173461	2,13218403	0,037683349583265523	6	-0,00829366036	8,03478397E-005
2	1	0	0	0	4330,95	2,19273829	2,19325328	0,038082294767567194	6	-0,008061097	8,35241153E-005
2	1	0	0	0	4337,05	2,25374317	2,25431275	0,038710266322595942	6	-0,00782504864	8,72650489E-005
2	1	0	0	0	4343,15	2,31474781	2,31529236	0,03980594985165031	6	-0,00758364284	9,21624087E-005
2	1	0	1	0	4349,25	2,37575245	2,3761611	0,04111617905437015	6	-0,00733513711	9,7698663E-005
2	1	0	1	0	4355,35	2,43675709	2,4373107	0,042796894820639898	6	-0,0070785	0,000104309329
2	1	0	1	0	4361,45	2,49776053	2,49819946	0,044749702105005062	6	-0,00681024045	0,000111793684
2	1	0	0	0	4367,55	2,5587666	2,5591085	0,046512604467958739	6	-0,0065301382	0,000119030803
2	1	0	0	0	4373,65	2,61977124	2,62003779	0,048838508819850746	6	-0,0062373816	0,000127958745
2	1	0	1	0	4379,75	2,6807766	2,6811378	0,051237867364267162	6	-0,00593045494	0,000137375784
2	1	0	1	0	4385,85	2,74178052	2,74218678	0,053872500119420294	6	-0,00560777681	0,000147728453
2	1	0	1	0	4391,95	2,80278516	2,80311584	0,056523455054654278	6	-0,00526873395	0,000158441791
2	1	0	1	0	4398,05	2,86378956	2,86420417	0,059531747260247795	6	-0,00491292728	0,000170511077
2	1	0	0	0	4404,15	2,92479444	2,92538476	0,062480518245138227	6	-0,00453977939	0,00018277955
2	1	0	0	0	4410,25	2,98579931	2,98619366	0,065390487550758042	6	-0,00414897315	0,000195268658
2	1	0	1	0	4416,35	3,04680347	3,04725218	0,068675589822607014	6	-0,00373879331	0,000209271835
2	1	0	1	0	4422,46	3,10780835	3,10840273	0,072515606220501069	6	-0,00330664427	0,000225407712
2	1	0	1	0	4428,56	3,16881299	3,16931152	0,076485714312487411	6	-0,00285091624	0,000242407055
2	1	0	0	0	4434,66	3,22981834	3,23039174	0,081293640427878566	6	-0,00236833841	0,000262610294
2	1	0	0	0	4440,76	3,29082227	3,29119992	0,087537965679075571	6	-0,00185216533	0,000288104959
2	1	0	0	0	4446,86	3,35182691	3,35234952	0,095807588950265088	6	-0,00129175477	0,000321180531
2	1	0	1	0	4453,00	3,41323161	3,41372967	0,10667036757028336	6	-0,000669379602	0,000364143809
2	1	0	1	0	4459,10	3,47423649	3,47465897	0,11921278600736197	6	2,0604748E-005	0,000414223789
2	1	0	1	0	4465,20	3,53524113	3,53559804	0,13395198939057674	6	0,00079340121	0,000473600405
2	1	0	0	0	4471,30	3,59624529	3,59664798	0,15169334476998813	6	0,00166592759	0,000545587565
2	1	0	0	0	4477,40	3,6572504	3,65777707	0,16937129478901648	6	0,00264998665	0,000619522412
2	1	0	0	0	4483,50	3,71825504	3,71867633	0,1827500921984513	6	0,00372729241	0,000679588469
2	1	0	1	0	4489,60	3,77925992	3,77968574	0,19475731121209584	6	0,00487972051	0,000736121438
2	1	0	1	0	4495,70	3,84026456	3,84076476	0,20832788253513491	6	0,00610929215	0,000800138398
2	1	0	1	0	4501,80	3,9012692	3,90200448	0,22499630530364768	6	0,00743154623	0,000877936604
2	1	0	0	0	4507,90	3,96227384	3,96295404	0,24380585302909165	6	0,00886220858	0,000966191408
2	1	0	0	0	4514,00	4,02327824	4,02393341	0,26201025218081987	6	0,0104080029	0,00105431175
2	1	0	0	0	4520,10	4,08428288	4,08476162	0,27673805140269315	6	0,0120567549	0,00113040896
2	1	0	1	0	4526,20	4,14528799	4,14577103	0,28509199285569386	6	0,0137734991	0,00118192611
2	0	0	1	1	4532,25	4,19419146	4,19460011	0,24133605531639501	6	0,0155171752	0,00101230829
2	0	0	0	1	4538,35	4,13318682	4,13384199	0,090862260044862758	6	0,0164109766	0,000375610223
2	0	0	0	1	4544,49	4,07178211	4,07233143	0,044594716106075808	6	0,016805904	0,000181604468
2	0	0	1	1	4550,60	4,010777	4,01141262	0,021529166107976352	6	0,0169997476	8,63623718E-005
2	0	0	1	1	4556,70	3,94977283	3,95028281	0,007544491735946679	6	0,0170837175	2,98028754E-005
2	0	0	1	1	4562,84	3,88836813	3,88890266	-0,001662418756798928	6	0,0170983803	6,46498484E-006
2	0	0	0	1	4568,94	3,82736349	3,82780313	-0,0078224369475113626	6	0,0170672443	2,99427484E-005
2	0	0	0	1	4575,08	3,76595879	3,76636267	-0,011956282707008853	6	0,0170051083	4,50316984E-005
2	0	0	0	1	4581,18	3,70495415	3,70541358	-0,015051584132985795	6	0,0169214625	5,57723433E-005
2	0	0	1	1	4587,28	3,64394927	3,64444423	-0,017646165943006138	6	0,0168200172	6,43104649E-005
2	0	0	1	1	4593,38	3,58294463	3,58347511	-0,020013631738644733	6	0,0167032182	7,17183502E-005
2	0	0	1	1	4599,48	3,52193999	3,52237582	-0,021684821210025517	6	0,0165743288	7,63820935E-005
2	0	0	0	1	4605,58	3,46093535	3,46153712	-0,022966498315023786	6	0,0164363366	7,9499383E-005
2	0	0	0	1	4611,68	3,39993072	3,40023708	-0,024073599580636541	6	0,0162907932	8,18559492E-005
2	0	0	0	1	4617,78	3,33892584	3,33916759	-0,02522640591875336	6	0,0161382351	8,42351947E-005
2	0	0	1	1	4623,88	3,2779212	3,27832842	-0,026527584608023402	6	0,0159787014	8,6966138E-005
2	0	0	1	1	4629,98	3,21691656	3,2171886	-0,027439561507587085	6	0,015812492	8,82782479E-005
2	0	0	1	1	4636,08	3,15591192	3,15637016	-0,028387677564751357	6	0,0156402867	8,9602021E-005
2	0	0	0	1	4642,18	3,09490752	3,09517026	-0,029005823453189792	6	0,0154629471	8,9777961E-005
2	0	0	0	1	4648,28	3,03390265	3,03420115	-0,029678878946773043	6	0,0152816512	9,00516898E-005
2	0	0	0	1	4654,38	2,97289824	2,97317171	-0,03003612325604384	6	0,0150976442	8,93025499E-005
2	0	0	1	1	4660,48	2,91189361	2,91238308	-0,030245923534190925	6	0,0149117801	8,80877124E-005
2	0	0	1	1	4666,58	2,85088897	2,85146403	-0,030390980740776397	6	0,0147249326	8,6658787E-005
2	0	0	1	1	4672,68	2,78988409	2,79027438	-0,030593143843968154	6	0,0145375608	8,53632664E-005
2	0	0	0	1	4678,79	2,72887945	2,72924495	-0,030562921601813344	6	0,014350065	8,34137027E-005
2	0	0	0	1	4684,89	2,66787481	2,66823578	-0,030657556946001472	6	0,0141621912	8,18015906E-005
2	0	0	0	1	4690,99	2,60687041	2,60741687	-0,030962941168885037	6	0,0139728487	8,07332981E-005
2	0	0	1	1	4697,09	2,54586554	2,54653788	-0,031716552689128205	6	0,0137801412	8,07674005E-005
2	0	0	1	1	4703,19	2,48486066	2,48519778	-0,0328155481547584	6	0,013581845	8,15531239E-005
2	0	0	1	1	4709,29	2,42385602	2,42431879	-0,034169468766776928	6	0,0133758858	8,28376869E-005
2	0	0	0	1	4715,39	2,36285138	2,36320901	-0,035753528752441978	6	0,0131609915	8,44930619E-005
2	0	0	0	1	4721,49	2,30184698	2,30224991	-0,037274296172351341	6	0,0129362103	8,58147469E-005
2	0	0	0	1	4727,59	2,2408421	2,24123073	-0,039239626727067014	6	0,0127009833	8,79450599E-005
2	0	0	1	1	4733,69	2,17983747	2,18042207	-0,041063391312491149	6	0,0124546764	8,95355261E-005
2	0	0	1	1	4739,79	2,11883283	2,11904168	-0,043019310396630426	6	0,0121965939	9,1159709E-005
2	0	0	0	1	4740,54	2,11123276	2,1118145	-0,044014128049214675	6	0,0121638672	9,29496746E-005