Folder: thesis/Experimentelles/Rohdaten/Batterietests/AlteZelle/Studenten_Batterietests/LLTO_LP30_Li CV/ECLab-Export (part 5)

File: LLTO_LP30_Li_05_GCPL_C01_loop9.mpt
EC-Lab ASCII FILE
Nb header lines : 3
mode	ox/red	error	control changes	Ns changes	counter inc.	Ns	time/s	control/V/mA	Ewe/V	dq/mA.h	<I>/mA	P/W	(Q-Qo)/mA.h	x	Capacity/mA.h
1	0	0	1	1	0	1	39391,15	-0,100000001	4,18852472	0	0	0	0	0	0
1	0	0	1	0	0	1	39451,15	-0,100000001	2,24771833	-0,00027773783558524317	-0,099985620624449805	0,000224739517	-0,0016650508417036182	6,2125285588628186E-005	0,0016650508417036182
1	0	0	1	0	0	1	39511,15	-0,100000001	1,48313189	-0,00027773785194464858	-0,09998562651383575	0,000148291874	-0,0033314768152762829	0,00012430187919617499	0,0033314768152762829
1	0	0	1	0	0	1	39571,15	-0,100000001	1,4037925	-0,00027773797691158122	-0,099985671501931418	0,00014035913	-0,0049979057378094438	0,00018647858283340278	0,0049979057378094438
1	0	0	1	0	0	1	39631,15	-0,100000001	1,35420299	-0,00027773829187204442	-0,099985784887697946	0,000135401046	-0,0066643347201645581	0,00024865528870266813	0,0066643347201645581
1	0	0	1	0	0	1	39691,15	-0,100000001	1,3174262	-0,00027773788987596829	-0,09998564016911081	0,000131723704	-0,0083307631422397376	0,00031083197366713568	0,0083307631422397376
1	0	0	1	0	0	1	39751,15	-0,100000001	1,29884696	-0,00027773844660197696	-0,099985840590473549	0,000129866312	-0,0099971928518509914	0,00037300870667130541	0,0099971928518509914
1	0	0	1	0	0	1	39811,15	-0,100000001	1,2634449	-0,00027773792545952733	-0,099985652979192051	0,000126326369	-0,011663620755943181	0,00043518537230913133	0,011663620755943181
1	0	0	1	0	0	1	39871,15	-0,100000001	1,223212	-0,00027773813311507302	-0,099985727735188365	0,00012230374	-0,013330047775794667	0,00049736200495474765	0,013330047775794667
1	0	0	1	0	0	1	39931,15	-0,100000001	1,18084037	-0,00027773733828134006	-0,099985441595045018	0,000118066848	-0,014996475202988026	0,00055953865279883686	0,014996475202988026
1	0	0	1	0	0	1	39991,15	-0,100000001	1,13403881	-0,00027773797270614237	-0,099985669987973427	0,000113387629	-0,016662901561368691	0,00062171526076408768	0,016662901561368691
1	0	0	1	0	0	1	40051,15	-0,100000001	1,08057308	-0,00027773819523553056	-0,099985750098553037	0,00010804191	-0,018329329637378483	0,00068389193281639027	0,018329329637378483
1	0	0	1	0	0	1	40111,15	-0,100000001	1,02029037	-0,00027773850027968483	-0,099985859914448358	0,000102014608	-0,019995760025401526	0,00074606869113301606	0,019995760025401526
1	0	0	1	0	0	1	40171,15	-0,100000001	0,97201848	-0,00027773991313245558	-0,09998636854144489	9,71885966E-005	-0,021662195380736586	0,00080824563478673178	0,021662195380736586
1	0	0	1	0	0	1	40231,15	-0,100000001	0,948512614	-0,00027773991340357395	-0,099986368639047501	9,48383313E-005	-0,02332863426914152	0,00087042271026403456	0,02332863426914152
1	0	0	1	0	0	1	40291,15	-0,100000001	0,936196387	-0,00027773931334498858	-0,099986152617957171	9,36066717E-005	-0,024995072097631827	0,00093259974619449766	0,024995072097631827
1	0	0	1	0	0	1	40351,15	-0,100000001	0,926133394	-0,0002777398907277319	-0,099986360475744371	9,26007051E-005	-0,026661511095485376	0,00099477682575547571	0,026661511095485376
1	0	0	1	0	0	1	40411,15	-0,100000001	0,914561868	-0,00027773956488031482	-0,099986243170674445	9,14436023E-005	-0,028327949941724992	0,0010569538996595338	0,028327949941724992
1	0	0	1	0	0	1	40471,15	-0,100000001	0,90138638	-0,0002777396226748824	-0,09998626397671872	9,01262538E-005	-0,029994388562094048	0,0011191309651360578	0,029994388562094048
1	0	0	1	0	0	1	40531,15	-0,100000001	0,887332559	-0,00027773963505940307	-0,099986268435146163	8,87210699E-005	-0,031660827646879309	0,0011813080479405747	0,031660827646879309
1	0	0	1	0	0	1	40591,15	-0,100000001	0,873106837	-0,00027773991972953082	-0,099986370916391949	8,72987875E-005	-0,033327267195185888	0,0012434851480396954	0,033327267195185888
1	0	0	1	0	0	1	40651,15	-0,100000001	0,858021855	-0,00027773975029629139	-0,099986309920425882	8,57904379E-005	-0,034993706753409606	0,0013056622485088376	0,034993706753409606
1	0	0	1	0	0	1	40711,15	-0,100000001	0,84280324	-0,00027773983099973862	-0,099986338973666854	8,42688096E-005	-0,036660145349699629	0,0013678393130869405	0,036660145349699629
1	0	0	1	0	0	1	40771,15	-0,100000001	0,827164471	-0,00027773983144304819	-0,099986339133258291	8,27051481E-005	-0,038326582829039994	0,0014300163359901499	0,038326582829039994
1	0	0	1	0	0	1	40831,15	-0,100000001	0,811372995	-0,00027773929519744384	-0,099986146084841075	8,11260616E-005	-0,039993019217160883	0,0014921933181784934	0,039993019217160883
1	1	0	0	1	0	2	40873,57	0,100000001	0,81164211	5,488672604163488E-009	0,032932034060793242	2,67290252E-005	-0,041170989456856051	0,0015361449716193517	5,488672604163488E-009
1	1	0	0	0	0	2	40933,57	0,100000001	0,856335104	0,0002778075161050591	0,10001070561153683	8,56426777E-005	-0,039504145673447648	0,0014739527889650822	0,0016668492720810077
1	1	0	0	0	0	2	40993,57	0,100000001	0,879478157	0,00027780774272854131	0,10001078719599026	8,79573054E-005	-0,037837299133156371	0,0014117605034478062	0,0033336958123722835
1	1	0	0	0	0	2	41053,57	0,100000001	0,900673509	0,00027780764485688678	0,10001075196219469	9,00770319E-005	-0,036170454261293888	0,0013495682801818514	0,0050005406842347654
1	1	0	0	0	0	2	41113,57	0,100000001	0,920570374	0,000277807792486416	0,10001080510882512	9,20669845E-005	-0,034503606788212691	0,001287375959860929	0,0066673881573159667
1	1	0	0	0	0	2	41173,57	0,100000001	0,939397931	0,00027780770456873709	0,10001077345846077	9,3949915E-005	-0,03283676021691831	0,0012251836731868854	0,0083342347286103488
1	1	0	0	0	0	2	41233,57	0,100000001	0,957576275	0,00027780793565760058	0,10001085665045147	9,5768024E-005	-0,031169913711184486	0,0011629913889589942	0,010001081234344178
1	1	0	0	0	0	2	41293,57	0,100000001	0,974207938	0,00027780798118892643	0,10001087304172874	9,7431388E-005	-0,029503065218031462	0,0011007990305778208	0,0116679297274972
1	1	0	0	0	0	2	41353,57	0,100000001	1,00353777	0,00027780780284023946	0,10001080883620157	0,000100364625	-0,027836218506597862	0,0010386067386749946	0,013334776438930798
1	1	0	0	0	0	2	41413,57	0,100000001	1,06511879	0,00027780730658645427	0,10001063018483923	0,000106523199	-0,026169372897498365	0,00097641448790173555	0,015001622048030298
1	1	0	0	0	0	2	41473,57	0,100000001	1,11927199	0,00027780710083618758	0,10001055611474336	0,000111939014	-0,024502529431577827	0,00091422231709336538	0,016668465513950835
1	1	0	0	0	0	2	41533,57	0,100000001	1,1653862	0,00027780736854755216	0,10001065249083442	0,000116551033	-0,022835685289551869	0,00085203012105859277	0,01833530965597679
1	1	0	0	0	0	2	41593,57	0,100000001	1,208197	0,00027780733007151219	0,10001063863946006	0,000120832556	-0,021168842609145213	0,00078983797955880141	0,020002152336383446
1	1	0	0	0	0	2	41653,57	0,100000001	1,25159967	0,00027780722615412541	0,10001060122920088	0,000125173232	-0,01950199859885256	0,00072764578843917555	0,021668996346676099
1	1	0	0	0	0	2	41713,57	0,100000001	1,29609084	0,00027780706591655811	0,10001054354367677	0,000129622757	-0,017835157298767789	0,00066545369844104973	0,023335837646760874
1	1	0	0	0	0	2	41773,57	0,100000001	1,34170854	0,00027780713037194477	0,10001056674761592	0,000134185029	-0,0161683157213604	0,00060326159809564403	0,025002679224168259
1	1	0	0	0	0	2	41833,57	0,100000001	1,37334883	0,00027780760019065606	0,10001073588235166	0,000137349634	-0,014501472179529622	0,00054106942445496058	0,02666952276599904
1	1	0	0	0	0	2	41893,57	0,100000001	1,37510562	0,00027780663923298323	0,1000103899375901	0,000137524854	-0,012834630893863792	0,0004788773349948247	0,02833636405166487
1	1	0	0	0	0	2	41953,57	0,100000001	1,40708959	0,00027780638247728349	0,10001029750553835	0,000140723452	-0,011167792328825898	0,0004166853470449751	0,030003202616702771
1	1	0	0	0	0	2	42013,57	0,100000001	1,47197402	0,00027780627513221565	0,10001025886131402	0,0001472125	-0,0095009543030639232	0,00035449337921623514	0,031670040642464749
1	1	0	0	0	0	2	42073,57	0,100000001	2,25819421	0,00027780714209833082	0,10001057096911488	0,000225843294	-0,0078341149526930266	0,00029230136196455526	0,033336879992835648
1	1	0	0	0	0	2	42133,57	0,100000001	3,05252314	0,00027780706614380086	0,10001054362548414	0,000305284484	-0,0061672738941564902	0,00023010928097891875	0,035003721051372186
1	1	0	0	0	0	2	42193,57	0,100000001	3,47381425	0,00027780731171576515	0,10001063203139114	0,000347418361	-0,0045004311405917587	0,00016791713674950131	0,036670563804936922
1	1	0	0	0	0	2	42253,57	0,100000001	3,73602533	0,00027780714010240307	0,1000105702505809	0,000373642019	-0,0028335888252561046	0,00010572500887099995	0,03833740612027257
1	1	0	0	0	0	2	42313,57	0,100000001	3,9548912	0,00027780750941733523	0,10001070320395622	0,000395531446	-0,0011667456427958032	4,3532848638912128E-005	0,04000424930273287
1	1	0	0	0	0	2	42373,57	0,100000001	4,13085079	0,00027780699297785763	0,10001051728574462	0,000413128524	0,00050009761663727437	-1,8659314465133459E-005	0,041671092562165946
1	1	0	0	0	0	2	42402,69	0,100000001	4,1999054	0,00025327737902932698	0,10001081088173776	0,00042003594	0,0013089903694547958	-4,8840190640628173E-005	0,042479985314983469