Folder: thesis/Experimentelles/Rohdaten/Batterietests/AlteZelle/Studenten_Batterietests/LLTO_LP30_Li CV/ECLab-Export (part 3)

File: LLTO_LP30_Li_02_CV_C01_loop10.mpt
EC-Lab ASCII FILE
Nb header lines : 3
mode	ox/red	error	control changes	counter inc.	time/s	control/V	Ewe/V	<I>/mA	cycle number	(Q-Qo)/C	P/W
2	0	0	1	0	7381,06	2,11283278	2,1135788	-0,049981214106082918	11	0	0,000105639236
2	0	0	0	0	7387,19	2,05152774	2,05189753	-0,04537370159717591	11	-0,000273268321	9,31021859E-005
2	0	0	0	0	7393,34	1,99002302	1,99032676	-0,047805002560683872	11	-0,000561243738	9,5147574E-005
2	0	0	0	0	7399,49	1,92851841	1,92909706	-0,050262408563867213	11	-0,000864378118	9,69610628E-005
2	0	0	1	0	7405,64	1,86701369	1,86754632	-0,05311227828497056	11	-0,00118388701	9,91896377E-005
2	0	0	1	0	7411,79	1,80550897	1,80588543	-0,05689502049547929	11	-0,00152328424	0,000102745886
2	0	0	1	0	7417,94	1,74400425	1,74448526	-0,062218627368565645	11	-0,00189000042	0,000108539476
2	0	0	0	0	7424,09	1,68249953	1,68306506	-0,069831219851039578	11	-0,00229660049	0,000117530486
2	0	0	0	0	7430,24	1,62099481	1,62162459	-0,078693465543134835	11	-0,00275344797	0,00012761126
2	0	0	1	0	7436,40	1,5594902	1,55979335	-0,096914388452811763	11	-0,00328666298	0,000151166416
2	0	0	1	0	7442,59	1,49758554	1,49805224	-0,15524037446205808	11	-0,00403556228	0,000232558188
2	0	0	1	0	7448,74	1,43608069	1,43661189	-0,28585196333006026	11	-0,00535888597	0,000410658336
2	0	0	0	0	7454,89	1,37457609	1,37496102	-0,4593446743674576	11	-0,00764337415	0,000631581002
2	0	0	0	0	7461,04	1,31307125	1,31361091	-0,63478889300798618	11	-0,0110163158	0,000833865604
2	0	0	0	0	7467,19	1,25156665	1,25202012	-0,79957004201909146	11	-0,015428111	0,00100107782
2	0	0	1	0	7473,34	1,19006205	1,1905998	-0,97815434262156493	11	-0,0209099632	0,00116459036
2	0	0	1	0	7479,53	1,12815714	1,12863815	-1,1040341447417923	11	-0,0273900572	0,00124605501
2	0	0	1	0	7485,68	1,06665254	1,06710768	-1,1694655657435451	11	-0,0344087258	0,00124794571
2	0	0	0	0	7491,83	1,00514781	1,00556707	-1,1847053760041826	11	-0,041678153	0,00119130069
2	0	0	0	0	7497,98	0,943643212	0,944206953	-1,1421351190656442	11	-0,048867017	0,00107841194
2	1	0	1	0	7504,07	0,917341173	0,917802334	-0,77505568601191219	11	-0,0553324223	0,000711347908
2	1	0	1	0	7510,26	0,979245901	0,979683816	-0,14366335216133619	11	-0,0579108335	0,000140744654
2	1	0	0	0	7516,49	1,04155064	1,0421766	0,16023119958117581	11	-0,0577547997	0,000166989208
2	1	0	0	0	7522,64	1,10305536	1,10347664	0,33936000692968627	11	-0,0561825559	0,000374475843
2	1	0	0	0	7528,79	1,16456008	1,16502726	0,48078642164667507	11	-0,0536481105	0,000560129294
2	1	0	1	0	7534,94	1,22606468	1,226578	0,61155222790936486	11	-0,0502834693	0,00075011648
2	1	0	1	0	7541,09	1,28756928	1,28816867	0,73131127686550106	11	-0,046143692	0,000942052284
2	1	0	1	0	7547,24	1,34907401	1,34953868	0,83038675660888192	11	-0,0413272046	0,00112063903
2	1	0	0	0	7553,39	1,41057873	1,41102934	0,90622775753338842	11	-0,0359732471	0,00127871393
2	1	0	0	0	7559,57	1,47238362	1,47269011	1,015244846232235	11	-0,0301013552	0,00149514107
2	1	0	1	0	7565,73	1,53388977	1,53441143	1,1421722416824806	11	-0,0233959258	0,00175256212
2	1	0	1	0	7571,88	1,59539282	1,59601188	1,0290632176523395	11	-0,0165329613	0,00164239714
2	1	0	1	0	7578,03	1,65689754	1,65709126	0,56194310542195859	11	-0,0115006268	0,000931191025
2	1	0	0	0	7584,22	1,71880233	1,71915329	0,083489823193910298	11	-0,00988685526	0,000143531797
2	1	0	0	0	7590,37	1,78030705	1,78092432	0,053963370679411981	11	-0,00948889554	9,61046826E-005
2	1	0	0	0	7596,56	1,84221172	1,84273565	0,04551452668965783	11	-0,0091821719	8,3871244E-005
2	1	0	1	0	7602,71	1,90371644	1,90426624	0,041886985922853062	11	-0,00891283713	7,97639732E-005
2	1	0	1	0	7608,86	1,96522117	1,96608746	0,039967779448488864	11	-0,00866045896	7,85801531E-005
2	1	0	1	0	7615,01	2,02672601	2,02737737	0,039149117035170291	11	-0,00841587503	7,9370031E-005
2	1	0	0	0	7621,16	2,08823061	2,0888176	0,038876332197105651	11	-0,00817454979	8,12055659E-005
2	1	0	0	0	7627,31	2,14973521	2,15009785	0,038834139219640352	11	-0,00793378521	8,34972016E-005
2	1	0	0	0	7633,46	2,21124005	2,21199894	0,039572198768534464	11	-0,00769108487	8,75336627E-005
2	1	0	1	0	7639,61	2,27274466	2,27317882	0,040210024046245965	11	-0,00744453492	9,14045741E-005
2	1	0	1	0	7645,76	2,3342495	2,3346796	0,041361617807221254	11	-0,00719234627	9,65661238E-005
2	1	0	0	0	7651,91	2,39575434	2,39620924	0,042363833718559539	11	-0,00693340646	0,000101512611
2	1	0	0	0	7658,06	2,4572587	2,45766044	0,043967780172048749	11	-0,00666614249	0,000108057873
2	1	0	0	0	7664,21	2,51876354	2,51935124	0,045944895925155469	11	-0,00638769055	0,000115751332
2	1	0	1	0	7670,36	2,58026838	2,58063126	0,047662110027546669	11	-0,00609839614	0,000122998332
2	1	0	1	0	7676,51	2,64177299	2,64199138	0,0498643475778712	11	-0,00579700479	0,000131741181
2	1	0	1	0	7682,66	2,70327759	2,7035923	0,05208756922123303	11	-0,00548203895	0,000140823555
2	1	0	0	0	7688,81	2,76478219	2,76517296	0,05461511173052713	11	-0,00515222177	0,000151020227
2	1	0	0	0	7694,97	2,82628703	2,82686377	0,057125882381418022	11	-0,00480722357	0,000161487085
2	1	0	0	0	7701,12	2,88779187	2,88839436	0,059655149894145446	11	-0,00444677286	0,000172307598
2	1	0	1	0	7707,27	2,94929647	2,94966435	0,062225222412962368	11	-0,00407069456	0,000183543525
2	1	0	1	0	7713,42	3,01080108	3,01132536	0,064809692344472986	11	-0,0036785088	0,000195163069
2	1	0	1	0	7719,57	3,07230592	3,07287574	0,06785018158067657	11	-0,00326880743	0,00020849517
2	1	0	0	0	7725,72	3,13381052	3,13421583	0,07107688651497801	11	-0,00283987774	0,000222770308
2	1	0	0	0	7731,87	3,19531512	3,1957767	0,07461611193139095	11	-0,00239070831	0,000238456429
2	1	0	0	0	7738,02	3,25681973	3,257267	0,078729369522382848	11	-0,00191814732	0,000256442581
2	1	0	1	0	7744,17	3,31832457	3,31893778	0,084246554392545306	11	-0,00141622603	0,000279609085
2	1	0	1	0	7750,32	3,37982917	3,38026786	0,090932033141143514	11	-0,000876702194	0,000307374634
2	1	0	0	0	7756,51	3,44173455	3,4421289	0,099242184224909606	11	-0,000286248775	0,000341604376
2	1	0	0	0	7762,66	3,50323868	3,50369024	0,10892184769424312	11	0,000355896889	0,000381628401
2	1	0	0	0	7768,81	3,56474328	3,56533074	0,12035979082186987	11	0,00106144301	0,000429122476
2	1	0	1	0	7774,96	3,62624812	3,62659097	0,1328033976800116	11	0,0018415919	0,000481623603
2	1	0	1	0	7781,11	3,68775272	3,68829179	0,14378900616429768	11	0,00269512995	0,000530335819
2	1	0	1	0	7787,26	3,74925756	3,74973226	0,15355290092217366	11	0,00361198699	0,000575782266
2	1	0	0	0	7793,41	3,81076217	3,81130266	0,16426987802454573	11	0,00459139748	0,000626082241
2	1	0	0	0	7799,56	3,87226701	3,87283325	0,17729435667085158	11	0,00564212911	0,00068663148
2	1	0	0	0	7805,71	3,93377161	3,93387246	0,19234344262319293	11	0,00677954452	0,000756654597
2	1	0	1	0	7811,86	3,99527621	3,99584413	0,20825078051226774	11	0,0080142403	0,000832137652
2	1	0	1	0	7818,01	4,05678082	4,05732489	0,22156107906873011	11	0,00934009161	0,000898945262
2	1	0	1	0	7824,17	4,11828518	4,11877537	0,23087685149169389	11	0,0107358228	0,000950929883
2	1	0	0	0	7830,32	4,17979002	4,18049574	0,24221184826455962	11	0,0121879177	0,00101256557
2	0	0	1	1	7836,42	4,15918875	4,15964508	0,094348679025036518	11	0,0132759977	0,000392457005
2	0	0	1	1	7842,61	4,09728432	4,09781408	0,03759331372566521	11	0,0136507833	0,000154050416
2	0	0	0	1	7848,76	4,035779	4,03633308	0,014694242442298362	11	0,0138021298	5,93108562E-005
2	0	0	0	1	7854,95	3,97387433	3,97425127	0,0011178772765560973	11	0,0138467932	4,44272519E-006
2	0	0	0	1	7861,10	3,91236973	3,91283131	-0,007007548845043232	11	0,0138266291	2,74193571E-005
2	0	0	1	1	7867,29	3,85046506	3,85094976	-0,012196654402941939	11	0,0137643488	4,69687038E-005
2	0	0	1	1	7873,44	3,78896022	3,78945947	-0,015946349774215718	11	0,0136748534	6,04280467E-005
2	0	0	1	1	7879,59	3,72745633	3,72799969	-0,018555996495997485	11	0,0135665108	6,91767491E-005
2	0	0	0	1	7885,74	3,66595078	3,66642833	-0,020693330399808445	11	0,0134438071	7,58706155E-005
2	0	0	0	1	7891,89	3,60444617	3,60482764	-0,022459648685374643	11	0,0133092729	8,09631601E-005
2	0	0	1	1	7898,04	3,54294086	3,54339623	-0,02357367751001649	11	0,0131654516	8,3530882E-005
2	0	0	1	1	7904,19	3,48143673	3,48200679	-0,024711912944136742	11	0,0130147925	8,60470464E-005
2	0	0	1	1	7910,34	3,41993213	3,42058682	-0,025556067480162371	11	0,012858619	8,74167454E-005
2	0	0	0	1	7916,49	3,35842729	3,35904598	-0,026372816966613645	11	0,0126971947	8,85875052E-005
2	0	0	0	1	7922,64	3,29692268	3,29748535	-0,02731287836407624	11	0,012530325	9,00638188E-005
2	0	0	0	1	7928,79	3,23541784	3,23597479	-0,027969399156669738	11	0,0123581449	9,05082707E-005
2	0	0	1	1	7934,94	3,17391324	3,17424369	-0,029001470684306714	11	0,012181093	9,20577368E-005
2	0	0	1	1	7941,09	3,11240888	3,1126833	-0,029457901682083789	11	0,0119999442	9,16931167E-005
2	0	0	1	1	7947,25	3,05090427	3,0514133	-0,029985825017017075	11	0,0118155228	9,14991469E-005
2	0	0	0	1	7953,40	2,98939943	2,99005318	-0,030152055386376218	11	0,0116289547	9,01562526E-005
2	0	0	0	1	7959,55	2,92789483	2,92849255	-0,030175139613371981	11	0,011441201	8,83676694E-005
2	0	0	0	1	7965,70	2,86638999	2,86678147	-0,030457053750675642	11	0,0112529267	8,73137178E-005
2	0	0	1	1	7971,85	2,80488539	2,80524087	-0,030317949926636	11	0,0110645397	8,50491488E-005
2	0	0	1	1	7978,00	2,74338055	2,74398088	-0,030453503859462214	11	0,0108761638	8,35638348E-005
2	0	0	0	1	7984,15	2,68187475	2,68218684	-0,030452094393253805	11	0,0106873633	8,16782049E-005
2	0	0	0	1	7990,30	2,6203711	2,62078977	-0,030950512785542176	11	0,0104969749	8,11147838E-005
2	0	0	0	1	7996,45	2,5588665	2,55929899	-0,03169923629805753	11	0,0103030689	8,11278223E-005
2	0	0	1	1	8002,60	2,4973619	2,49779868	-0,032709241155923027	11	0,0101034828	8,17011023E-005
2	0	0	1	1	8008,75	2,43585706	2,4363482	-0,03418915352085607	11	0,00989622623	8,32966834E-005
2	0	0	1	1	8014,90	2,37435246	2,37496781	-0,035608489987983718	11	0,00967996195	8,45690156E-005
2	0	0	0	1	8021,05	2,31284761	2,31295609	-0,037342134475087162	11	0,00945381913	8,63707173E-005
2	0	0	0	1	8027,20	2,25134301	2,25189686	-0,039108116528950714	11	0,00921709742	8,80674415E-005
2	0	0	0	1	8033,35	2,18983841	2,19036627	-0,040991883492097357	11	0,00896932743	8,97872378E-005
2	0	0	1	1	8039,50	2,12833357	2,12870526	-0,042918539509022022	11	0,00870983861	9,13609183E-005
2	0	0	0	1	8041,01	2,11313295	2,11349869	-0,043907420088847514	11	0,00864423905	9,27982765E-005

File: LLTO_LP30_Li_04_OCV_C01.mpt
EC-Lab ASCII FILE
Nb header lines : 48

Open Circuit Voltage

Run on channel : 1 (SN 6985)
Grouped channel(s) : 1
User :
CE vs. WE compliance from -10 V to 10 V
Electrode connection : standard
Ewe ctrl range : min = 0,00 V, max = 5,00 V
Acquisition started on : 04.29.2015 11:07:38
Saved on :
	File : LLTO_LP30_Li_04_OCV_C01.mpr
	Directory : C:\Hupfer\Studenten Batterietests\LLTO_LP30_Li CV\
	Host : 192.168.0.2
Device : VMP3 (SN 0324)
Address : 192.168.0.1
EC-Lab for windows v10.33 (software)
Internet server v10.33 (firmware)
Command interpretor v10.32 (firmware)
Electrode material : LATP vs Li
Initial state : charged
Electrolyte : DME:Diox 1:2, 1M LiTFSi
Comments : LATP als Elektrode, normaler Seperator und Elektrolyt, Goldschicht teilweise vorhanden, elektrolytschonend, Probe2
Mass of active material : 0,001 mg
 at x = 0,000
Molecular weight of active material (at x = 0) : 0,001 g/mol
Atomic weight of intercalated ion : 0,001 g/mol
Acquisition started at : xo = 0,000
Number of e- transfered per intercalated ion : 1
for DX = 1, DQ = 26,801 mA.h
Battery capacity : 0,000 A.h
Reference electrode : Li+/Li (-3,020 V)
Electrode surface area : 0,001 cm²
Characteristic mass : 0,001 g
Create one data file per loop
tR (h:m:s)          1:00:0,0000
dER/dt (mV/h)       0,0
dER (mV)            0,00
dtR (s)             5,0000
E range min (V)     0,000
E range max (V)     5,000

Number of loops : 1
Loop 0 from point number 0 to 720

mode	error	time/s	Ewe/V
3	0	8041,0634	2,11830497
3	0	8056,0634	2,18448782
3	0	8071,0634	2,21158361
3	0	8086,0634	2,22869253
3	0	8101,0634	2,24077964
3	0	8116,0634	2,24973512
3	0	8131,0634	2,25672388
3	0	8146,0634	2,26231861
3	0	8161,0634	2,26684427
3	0	8176,0634	2,2704339
3	0	8191,0634	2,27366114
3	0	8206,0634	2,27616239
3	0	8221,0634	2,27843475
3	0	8236,0634	2,28028703
3	0	8251,0634	2,28198647
3	0	8266,0634	2,28341866
3	0	8281,0634	2,28462148
3	0	8296,0634	2,28561449
3	0	8311,0634	2,28649282
3	0	8326,0634	2,28756213
3	0	8341,0634	2,28819227
3	0	8356,0634	2,28893709
3	0	8371,0634	2,28941441
3	0	8386,0634	2,28994894
3	0	8401,0634	2,29042649
3	0	8416,0634	2,2908082
3	0	8431,0634	2,29109478
3	0	8446,0634	2,29145741
3	0	8461,0634	2,29176307
3	0	8476,0634	2,29172492
3	0	8491,0634	2,29201126
3	0	8506,0634	2,29201126
3	0	8521,0634	2,2922976
3	0	8536,0634	2,29233599
3	0	8551,0634	2,29239321
3	0	8566,0634	2,29248857
3	0	8581,0634	2,29252672
3	0	8596,0634	2,2924695
3	0	8611,0634	2,29262233
3	0	8626,0634	2,29256511
3	0	8641,0634	2,2924695
3	0	8656,0634	2,29250765
3	0	8671,0634	2,29241228
3	0	8686,0634	2,29237413
3	0	8701,0634	2,29231668
3	0	8716,0634	2,29214501
3	0	8731,0634	2,29204941
3	0	8746,0634	2,29203033
3	0	8761,0634	2,29195404
3	0	8776,0634	2,29166746
3	0	8791,0634	2,29155302
3	0	8806,0634	2,2914958
3	0	8821,0634	2,29138112
3	0	8836,0634	2,29105639
3	0	8851,0634	2,29096103
3	0	8866,0634	2,29084659
3	0	8881,0634	2,29071283
3	0	8896,0634	2,29044557
3	0	8911,0634	2,29019713
3	0	8926,0634	2,29006362
3	0	8941,0634	2,28998709
3	0	8956,0634	2,28987265
3	0	8971,0634	2,28956699
3	0	8986,0634	2,28947163
3	0	9001,0634	2,28928065
3	0	9016,0634	2,28914714
3	0	9031,0634	2,28876519
3	0	9046,0634	2,28866959
3	0	9061,0634	2,28844047
3	0	9076,0634	2,2881732
3	0	9091,0634	2,28815413
3	0	9106,0634	2,28788686
3	0	9121,0634	2,2876575
3	0	9136,0634	2,28740931
3	0	9151,0634	2,28723764
3	0	9166,0634	2,28714204
3	0	9181,0634	2,28674102
3	0	9196,0634	2,28658819
3	0	9211,0634	2,28639746
3	0	9226,0634	2,28618741
3	0	9241,0634	2,2859199
3	0	9256,0634	2,28584361
3	0	9271,0634	2,28555727
3	0	9286,0634	2,28548074
3	0	9301,0634	2,28513718
3	0	9316,0634	2,28490806
3	0	9331,0634	2,28481245
3	0	9346,0634	2,2844305
3	0	9361,0634	2,28437328
3	0	9376,0634	2,28399134
3	0	9391,0634	2,28389597
3	0	9406,0634	2,28368592
3	0	9421,0634	2,2835331
3	0	9436,0634	2,28320861
3	0	9451,0634	2,28307486
3	0	9466,0634	2,28280759
3	0	9481,0634	2,28255939
3	0	9496,0634	2,28240657
3	0	9511,0634	2,28217745
3	0	9526,0634	2,28198647
3	0	9541,0634	2,28189087
3	0	9556,0634	2,28166175
3	0	9571,0634	2,28137541
3	0	9586,0634	2,28112721
3	0	9601,0634	2,28089809
3	0	9616,0634	2,28074527
3	0	9631,0634	2,28055429
3	0	9646,0634	2,28034425
3	0	9661,0634	2,28017235
3	0	9676,0634	2,27994323
3	0	9691,0634	2,27961874
3	0	9706,0634	2,27961874
3	0	9721,0634	2,27931309
3	0	9736,0634	2,27902675
3	0	9751,0634	2,27900767
3	0	9766,0634	2,27868295
3	0	9781,0634	2,27851105
3	0	9796,0634	2,27832031
3	0	9811,0634	2,27814841
3	0	9826,0634	2,27793837
3	0	9841,0634	2,27769017
3	0	9856,0634	2,27753735
3	0	9871,0634	2,27730823
3	0	9886,0634	2,2769835
3	0	9901,0634	2,27690721
3	0	9916,0634	2,27675438
3	0	9931,0634	2,27660155
3	0	9946,0634	2,27635336
3	0	9961,0634	2,2761817
3	0	9976,0634	2,27599072
3	0	9991,0634	2,27572322
3	0	10006,0634	2,2755897
3	0	10021,0634	2,27536058
3	0	10036,0634	2,27515054
3	0	10051,0634	2,27499771
3	0	10066,0634	2,27484488
3	0	10081,0634	2,27461576
3	0	10096,0634	2,27440572
3	0	10111,0634	2,27425289
3	0	10126,0634	2,27415752
3	0	10141,0634	2,27381372
3	0	10156,0634	2,27377558
3	0	10171,0634	2,27350831
3	0	10186,0634	2,27329826
3	0	10201,0634	2,27320266
3	0	10216,0634	2,27297354
3	0	10231,0634	2,27289724
3	0	10246,0634	2,2726109
3	0	10261,0634	2,272439
3	0	10276,0634	2,27217174
3	0	10291,0634	2,27207613
3	0	10306,0634	2,2719233
3	0	10321,0634	2,27173257
3	0	10336,0634	2,27161789
3	0	10351,0634	2,27138877
3	0	10366,0634	2,27117872
3	0	10381,0634	2,27115965
3	0	10396,0634	2,27096868
3	0	10411,0634	2,27083492
3	0	10426,0634	2,2704339
3	0	10441,0634	2,27035761
3	0	10456,0634	2,27018571
3	0	10471,0634	2,26997566
3	0	10486,0634	2,26982307
3	0	10501,0634	2,26968932
3	0	10516,0634	2,26947927
3	0	10531,0634	2,26949835
3	0	10546,0634	2,2692883
3	0	10561,0634	2,26913548
3	0	10576,0634	2,26890635
3	0	10591,0634	2,26865816
3	0	10606,0634	2,26871538
3	0	10621,0634	2,26837182
3	0	10636,0634	2,26819992
3	0	10651,0634	2,26810431
3	0	10666,0634	2,26789451
3	0	10681,0634	2,2677989
3	0	10696,0634	2,26764607
3	0	10711,0634	2,26753163
3	0	10726,0634	2,26737881
3	0	10741,0634	2,26718783
3	0	10756,0634	2,26692057
3	0	10771,0634	2,26676774
3	0	10786,0634	2,26661491
3	0	10801,0634	2,26657677
3	0	10816,0634	2,26636672
3	0	10831,0634	2,26632857
3	0	10846,0634	2,26609945
3	0	10861,0634	2,26594663
3	0	10876,0634	2,26575565
3	0	10891,0634	2,26556492
3	0	10906,0634	2,26541209
3	0	10921,0634	2,26535487
3	0	10936,0634	2,26525927
3	0	10951,0634	2,26510644
3	0	10966,0634	2,26491547
3	0	10981,0634	2,26478195
3	0	10996,0634	2,26453376
3	0	11011,0634	2,26441908
3	0	11026,0634	2,26445723
3	0	11041,0634	2,26418996
3	0	11056,0634	2,26418996
3	0	11071,0634	2,26396084
3	0	11086,0634	2,26380801
3	0	11101,0634	2,2636745
3	0	11116,0634	2,26354074
3	0	11131,0634	2,26336884
3	0	11146,0634	2,26310158
3	0	11161,0634	2,26300621
3	0	11176,0634	2,26281524
3	0	11191,0634	2,2627387
3	0	11206,0634	2,26264334
3	0	11221,0634	2,26247144
3	0	11236,0634	2,26229954
3	0	11251,0634	2,26220417
3	0	11266,0634	2,2620132
3	0	11281,0634	2,26197505
3	0	11296,0634	2,26180315
3	0	11311,0634	2,26172662
3	0	11326,0634	2,26157403
3	0	11341,0634	2,26145935
3	0	11356,0634	2,26130676
3	0	11371,0634	2,26128745
3	0	11386,0634	2,2610774
3	0	11401,0634	2,26086736
3	0	11416,0634	2,2606957
3	0	11431,0634	2,26063824
3	0	11446,0634	2,26054287
3	0	11461,0634	2,26023722
3	0	11476,0634	2,2603519
3	0	11491,0634	2,2601037
3	0	11506,0634	2,26004648
3	0	11521,0634	2,25983644
3	0	11536,0634	2,25970268
3	0	11551,0634	2,25968361
3	0	11566,0634	2,25945449
3	0	11581,0634	2,25935888
3	0	11596,0634	2,25926352
3	0	11611,0634	2,25907254
3	0	11626,0634	2,2590344
3	0	11641,0634	2,25888157