Folder: thesis/Experimentelles/Rohdaten/Batterietests/AlteZelle/Studenten_Batterietests/LLTO_LP30_Li CV/ECLab-Export (part 4)

File: LLTO_LP30_Li_05_GCPL_C01_loop6.mpt
EC-Lab ASCII FILE
Nb header lines : 3
mode	ox/red	error	control changes	Ns changes	counter inc.	Ns	time/s	control/V/mA	Ewe/V	dq/mA.h	<I>/mA	P/W	(Q-Qo)/mA.h	x	Capacity/mA.h
1	0	0	1	1	0	1	30278,98	-0,100000001	4,18823862	0	0	0	0	0	0
1	0	0	1	0	0	1	30338,98	-0,100000001	2,25904179	-0,00027773834548145533	-0,099985805583871411	0,000225872107	-0,0016650552180949325	6,2125448877672243E-005	0,0016650552180949325
1	0	0	1	0	0	1	30398,98	-0,100000001	1,4875046	-0,0002777382603461544	-0,099985774935162701	0,000148729305	-0,0033314855703700883	0,00012430220586049621	0,0033314855703700883
1	0	0	1	0	0	1	30458,98	-0,100000001	1,40575933	-0,00027773805609676573	-0,099985701405381888	0,000140555829	-0,0049979147732503846	0,00018647891995785254	0,0049979147732503846
1	0	0	1	0	0	1	30518,98	-0,100000001	1,35616982	-0,00027773817678292589	-0,099985744852400077	0,000135597656	-0,0066643445256122406	0,00024865565455710474	0,0066643445256122406
1	0	0	1	0	0	1	30578,98	-0,100000001	1,31792271	-0,00027773890367440054	-0,099986006533334118	0,000131773835	-0,0083307752945876083	0,00031083242708757376	0,0083307752945876083
1	0	0	1	0	0	1	30638,98	-0,100000001	1,30066097	-0,00027773794495852458	-0,099985661395614605	0,000130047454	-0,0099972048611593062	0,00037300915475474534	0,0099972048611593062
1	0	0	1	0	0	1	30698,98	-0,100000001	1,26632833	-0,00027773851721816589	-0,099985867409087962	0,000126614934	-0,011663635390391547	0,00043518591834007603	0,011663635390391547
1	0	0	1	0	0	1	30758,98	-0,100000001	1,2266109	-0,00027773849651465814	-0,099985859955825088	0,000122643745	-0,01333006380194485	0,00049736260291195834	0,01333006380194485
1	0	0	1	0	0	1	30818,98	-0,100000001	1,18469751	-0,00027773792094654506	-0,099985652751301862	0,000118452757	-0,014996493445588246	0,00055953933345477869	0,014996493445588246
1	0	0	1	0	0	1	30878,98	-0,100000001	1,13921344	-0,00027773789559553069	-0,099985643624936589	0,000113904993	-0,016662922406190979	0,00062171603851243341	0,016662922406190979
1	0	0	1	0	0	1	30938,98	-0,100000001	1,08702707	-0,00027773737790808083	-0,099985457257452365	0,000108686902	-0,018329348125113974	0,00068389262261865856	0,018329348125113974
1	0	0	1	0	0	1	30998,98	-0,100000001	1,02817655	-0,0002777380899923543	-0,099985713607793933	0,000102802966	-0,019995776081447565	0,00074606929020568128	0,019995776081447565
1	0	0	1	0	0	1	31058,98	-0,100000001	0,97755599	-0,00027773913162201645	-0,099986088594476838	9,77419986E-005	-0,021662207652394323	0,00080824609265878118	0,021662207652394323
1	0	0	1	0	0	1	31118,98	-0,100000001	0,951205015	-0,0002777394290541609	-0,099986195670050138	9,51073744E-005	-0,023328644322939395	0,00087042308538475085	0,023328644322939395
1	0	0	1	0	0	1	31178,98	-0,100000001	0,937590361	-0,00027773947655989066	-0,099986212772113062	9,37461082E-005	-0,024995081518194506	0,00093260009768835738	0,024995081518194506
1	0	0	1	0	0	1	31238,98	-0,100000001	0,927584589	-0,00027773952325681846	-0,099986229583007258	9,27456858E-005	-0,026661517671420518	0,00099477707111245734	0,026661517671420518
1	0	0	1	0	0	1	31298,98	-0,100000001	0,916395009	-0,00027773965286256538	-0,099986276241076723	9,16269273E-005	-0,028327956887145184	0,0010569541588024995	0,028327956887145184
1	0	0	1	0	0	1	31358,98	-0,100000001	0,903505921	-0,00027773981256783008	-0,099986333734972723	9,03382461E-005	-0,029994394914875603	0,001119131202166879	0,029994394914875603
1	0	0	1	0	0	1	31418,98	-0,100000001	0,889757574	-0,00027773988133793075	-0,099986358492209254	8,89636212E-005	-0,031660832863351712	0,0011813082425741738	0,031660832863351712
1	0	0	1	0	0	1	31478,98	-0,100000001	0,875398219	-0,00027773947472870349	-0,099986212112885683	8,75277547E-005	-0,03332726959900327	0,0012434852377293538	0,03332726959900327
1	0	0	1	0	0	1	31538,98	-0,100000001	0,860714257	-0,00027773955634277728	-0,099986241493952589	8,60595828E-005	-0,034993705797876915	0,0013056622128566282	0,034993705797876915
1	0	0	1	0	0	1	31598,98	-0,100000001	0,845514715	-0,00027773957574781443	-0,099986248479766042	8,45398463E-005	-0,036660142994019891	0,0013678392251933622	0,036660142994019891
1	0	0	1	0	0	1	31658,98	-0,100000001	0,830200553	-0,00027773996970926726	-0,099986390305890778	8,30087592E-005	-0,038326580411201312	0,0014300162457773379	0,038326580411201312
1	0	0	1	0	0	1	31718,98	-0,100000001	0,81448549	-0,00027773989246661466	-0,099986362498535514	8,14374434E-005	-0,039993020328697408	0,0014921933596514157	0,039993020328697408
1	0	0	1	0	0	1	31773,41	-0,100000001	0,800126076	-0,00012318895052621762	-0,099986523710276326	8,00018242E-005	-0,041504910064683366	0,0015486039984584211	0,041504910064683366
1	1	0	0	0	0	2	31823,42	0,100000001	0,852726161	0,00027780593528971082	0,10001013791513795	8,52812591E-005	-0,040115877410354477	0,0014967773225511437	0,0013890326543288926
1	1	0	0	0	0	2	31883,42	0,100000001	0,876193821	0,00027780656688618992	0,10001036528987322	8,76284612E-005	-0,038449040926586598	0,0014345854122562768	0,0030558691380967693
1	1	0	0	0	0	2	31943,42	0,100000001	0,897618294	0,00027780635780303018	0,1000102900199348	8,97710634E-005	-0,036782201711135782	0,0013723934000386467	0,0047227083535475872
1	1	0	0	0	0	2	32003,42	0,100000001	0,917877972	0,00027780620160284966	0,10001023378786914	9,1797192E-005	-0,03511536397949872	0,0013102014431841027	0,006389546085184649
1	1	0	0	0	0	2	32063,42	0,100000001	0,93699199	0,00027780631912085747	0,10001027609435245	9,37088262E-005	-0,033448523320919693	0,0012480093771214186	0,0080563867437636698
1	1	0	0	0	0	2	32123,42	0,100000001	0,955246747	0,00027780579162099293	0,10001008619439893	9,5534313E-005	-0,031781687392304102	0,0011858174875400298	0,0097232226723792653
1	1	0	0	0	0	2	32183,42	0,100000001	0,972183883	0,00027780660331828726	0,10001037840542842	9,72284761E-005	-0,030114849077759283	0,0011236255089364134	0,011390060986924088
1	1	0	0	0	0	2	32243,42	0,100000001	0,997847438	0,0002778067005020049	0,10001041339156717	9,97951356E-005	-0,028448008269986931	0,0010614334373071259	0,013056901794696435
1	1	0	0	0	0	2	32303,42	0,100000001	1,05751908	0,0002778061813546551	0,10001022649851901	0,000105762723	-0,026781170764182349	0,00099924148887869542	0,014723739300501014
1	1	0	0	0	0	2	32363,42	0,100000001	1,1128943	0,00027780645814827747	0,10001032614422426	0,00011130092	-0,025114332814095507	0,00093704952387349619	0,016390577250587859
1	1	0	0	0	0	2	32423,42	0,100000001	1,15979135	0,00027780603219610122	0,10001017280143894	0,00011599093	-0,023447494564080989	0,00087485754767759245	0,018057415500602381
1	1	0	0	0	0	2	32483,42	0,100000001	1,20286953	0,00027780607673691382	0,10001018883613168	0,000120299206	-0,02178065689483385	0,00081266559315090022	0,01972425316984952
1	1	0	0	0	0	2	32543,42	0,100000001	1,24592853	0,00027780645666312845	0,10001032560957059	0,000124605722	-0,020113819557044829	0,00075047365099135616	0,021391090507638541
1	1	0	0	0	0	2	32603,42	0,100000001	1,29011416	0,00027780635594949126	0,10001028935266077	0,000129024687	-0,01844698165206008	0,0006882816876689769	0,02305792841262329
1	1	0	0	0	0	2	32663,42	0,100000001	1,33573186	0,00027780611831736234	0,10001020380509333	0,000133586815	-0,016780144971274016	0,00062608977002309645	0,024724765093409354
1	1	0	0	0	0	2	32723,42	0,100000001	1,37392163	0,0002778062036091255	0,10001023451012845	0,000137406227	-0,015113306976835526	0,0005638978033630777	0,026391603087847843
1	1	0	0	0	0	2	32783,42	0,100000001	1,37298608	0,00027780620131351882	0,1000102322865832	0,000137312658	-0,013446469303016627	0,00050170584866580717	0,028058440761666746
1	1	0	0	0	0	2	32843,42	0,100000001	1,40080726	0,00027780601738434701	0,10001016607208146	0,00014009497	-0,011779633392172322	0,0004395139597474889	0,029725276672511046
1	1	0	0	0	0	2	32903,42	0,100000001	1,46074617	0,00027780611229108438	0,10001020023850688	0,000146089515	-0,010112796708475979	0,00037732204199302202	0,031392113356207392
1	1	0	0	0	0	2	32963,42	0,100000001	2,09987187	0,00027780631421216662	0,10001027293009634	0,000210008759	-0,0084459603168337062	0,00031513013513548518	0,033058949747849664
1	1	0	0	0	0	2	33023,42	0,100000001	2,96107769	0,00027780646133381459	0,1000103258938895	0,000296138343	-0,0067791204275912896	0,00025293809777778448	0,034725789637092083
1	1	0	0	0	0	2	33083,42	0,100000001	3,40375495	0,00027780675245780083	0,10001043069852437	0,000340411003	-0,0051122796990318611	0,00019074602910403754	0,036392630365651514
1	1	0	0	0	0	2	33143,42	0,100000001	3,64899087	0,00027780670409732397	0,10001041328875272	0,000364937092	-0,003445438911790832	0,00012855395824080117	0,038059471152892538
1	1	0	0	0	0	2	33203,42	0,100000001	3,85972214	0,00027780616681733062	0,10001021986795549	0,00038601167	-0,0017786009918933286	6,6361994362006938E-005	0,039726309072790042
1	1	0	0	0	0	2	33263,42	0,100000001	4,0329895	0,00027780645126228531	0,10001032226813898	0,000403340586	-0,00011176319200812205	4,1700349610328544E-006	0,041393146872675251
1	1	0	0	0	0	2	33323,42	0,100000001	4,18500423	0,00027780678478462829	0,10001044233618221	0,000418544136	0,0015550767106341645	-5,8022002896635059E-005	0,043059986775317542
1	1	0	0	0	0	2	33330,77	0,100000001	4,19981003	0,00020426546937144464	0,10001029381673267	0,00042002424	0,001759342180005609	-6,5643422196728154E-005	0,043264252244688986

File: LLTO_LP30_Li_05_GCPL_C01_loop8.mpt
EC-Lab ASCII FILE
Nb header lines : 3
mode	ox/red	error	control changes	Ns changes	counter inc.	Ns	time/s	control/V/mA	Ewe/V	dq/mA.h	<I>/mA	P/W	(Q-Qo)/mA.h	x	Capacity/mA.h
1	0	0	1	1	0	1	36367,28	-0,100000001	4,18844843	0	0	0	0	0	0
1	0	0	1	0	0	1	36427,28	-0,100000001	2,25180483	-0,00027773783089220522	-0,099985618934956134	0,000225148106	-0,0016650513864507846	6,2125305913877376E-005	0,0016650513864507846
1	0	0	1	0	0	1	36487,28	-0,100000001	1,48473585	-0,0002777378964614537	-0,099985642539885555	0,000148452265	-0,003331477997343216	0,00012430192330068155	0,003331477997343216
1	0	0	1	0	0	1	36547,28	-0,100000001	1,40461361	-0,00027773736755715475	-0,099985452134338291	0,000140440927	-0,0049979045289726464	0,00018647853773007658	0,0049979045289726464
1	0	0	1	0	0	1	36607,28	-0,100000001	1,35508144	-0,0002777372687438296	-0,099985416561541325	0,000135488386	-0,0066643285655975898	0,00024865505906749962	0,0066643285655975898
1	0	0	1	0	0	1	36667,28	-0,100000001	1,31771266	-0,00027773752987633146	-0,099985510569241792	0,000131752167	-0,0083307539670194752	0,00031083163132733152	0,0083307539670194752
1	0	0	1	0	0	1	36727,28	-0,100000001	1,29959166	-0,00027773781179512538	-0,099985612060007411	0,000129940468	-0,0099971799560475418	0,00037300822551154016	0,0099971799560475418
1	0	0	1	0	0	1	36787,28	-0,100000001	1,26455247	-0,00027773806932402982	-0,099985704770412851	0,000126437168	-0,011663605972616266	0,00043518482072332768	0,011663605972616266
1	0	0	1	0	0	1	36847,28	-0,100000001	1,22445309	-0,00027773822543025018	-0,09998576096865207	0,000122427868	-0,013330034721190789	0,00049736151786992486	0,013330034721190789
1	0	0	1	0	0	1	36907,28	-0,100000001	1,18225336	-0,00027773807153022954	-0,099985705564644736	0,000118208438	-0,01499646142378952	0,0005595381386784144	0,01499646142378952
1	0	0	1	0	0	1	36967,28	-0,100000001	1,1359483	-0,00027773797590368323	-0,099985671139088141	0,00011357855	-0,016662889836213715	0,00062171482328279091	0,016662889836213715
1	0	0	1	0	0	1	37027,28	-0,100000001	1,08282626	-0,00027773806136846541	-0,099985701906409664	0,000108267144	-0,018329317132382819	0,00068389146623818893	0,018329317132382819
1	0	0	1	0	0	1	37087,28	-0,100000001	1,02296364	-0,00027773808833666973	-0,0999857116149632	0,000102281745	-0,01999574539573455	0,00074606814528047142	0,01999574539573455
1	0	0	1	0	0	1	37147,28	-0,100000001	0,973966122	-0,00027773990214698845	-0,099986364586676723	9,73833303E-005	-0,021662181260656624	0,00080824510794756365	0,021662181260656624
1	0	0	1	0	0	1	37207,28	-0,100000001	0,949524641	-0,00027773996436761488	-0,099986386986102208	9,49395398E-005	-0,023328620763173594	0,00087042220633821235	0,023328620763173594
1	0	0	1	0	0	1	37267,28	-0,100000001	0,936864734	-0,00027773999916596544	-0,099986399513508378	9,36737342E-005	-0,024995059727058288	0,00093259928463176666	0,024995059727058288
1	0	0	1	0	0	1	37327,28	-0,100000001	0,926687121	-0,0002777397852457232	-0,099986322502221312	9,26560388E-005	-0,026661499896212227	0,0009947764078955369	0,026661499896212227
1	0	0	1	0	0	1	37387,28	-0,100000001	0,915096521	-0,0002777402779766255	-0,099986499885345818	9,14972989E-005	-0,028327941507163206	0,0010569535849546933	0,028327941507163206
1	0	0	1	0	0	1	37447,28	-0,100000001	0,902092934	-0,00027774032613717846	-0,099986517223144845	9,01971289E-005	-0,029994384515806266	0,0011191308141636202	0,029994384515806266
1	0	0	1	0	0	1	37507,28	-0,100000001	0,888153613	-0,0002777400698616273	-0,099986424963946598	8,88033028E-005	-0,03166082445626505	0,0011813079288944669	0,03166082445626505
1	0	0	1	0	0	1	37567,28	-0,100000001	0,873756051	-0,00027774017314861216	-0,099986462147261082	8,73637764E-005	-0,033327263302382976	0,0012434850027939848	0,033327263302382976
1	0	0	1	0	0	1	37627,28	-0,100000001	0,858995676	-0,00027773996030083958	-0,099986385522063104	8,58878702E-005	-0,034993704356321498	0,0013056621590702576	0,034993704356321498
1	0	0	1	0	0	1	37687,28	-0,100000001	0,843738854	-0,00027774003303133776	-0,099986411705042381	8,43624221E-005	-0,036660145458605203	0,0013678393171503536	0,036660145458605203
1	0	0	1	0	0	1	37747,28	-0,100000001	0,828176498	-0,00027773982267040346	-0,099986335975106189	8,28063348E-005	-0,038326586183468979	0,0014300164611484053	0,038326586183468979
1	0	0	1	0	0	1	37807,28	-0,100000001	0,812461436	-0,0002777398300870425	-0,09998633864509623	8,12350409E-005	-0,039993025933278163	0,0014921935687658592	0,039993025933278163
1	1	0	0	1	0	2	37853,63	0,100000001	0,81124109	5,4886018236478176E-009	0,032931610975112685	2,67154755E-005	-0,041280371570107904	0,0015402261653305936	5,4886018236478176E-009
1	1	0	0	0	0	2	37913,63	0,100000001	0,856583357	0,00027780681050361862	0,10001045159501872	8,5667285E-005	-0,039613532200153984	0,0014780341473482451	0,001666844858555744
1	1	0	0	0	0	2	37973,63	0,100000001	0,879573584	0,00027780714925833875	0,10001057354671774	8,7966655E-005	-0,037946690304778586	0,0014158420351390254	0,003333686753931145
1	1	0	0	0	0	2	38033,63	0,100000001	0,900711656	0,00027780681348923178	0,10001045266983946	9,00805826E-005	-0,036279849450251776	0,0013536499617652662	0,0050005276084579526
1	1	0	0	0	0	2	38093,63	0,100000001	0,920646727	0,00027780706120489373	0,10001054184747758	9,20743769E-005	-0,034613006321613645	0,001291457803541356	0,0066673707370960883
1	1	0	0	0	0	2	38153,63	0,100000001	0,939722538	0,00027780700195125408	0,10001052051616734	9,39821402E-005	-0,032946162793910822	0,0012292656304278054	0,0083342142647989094
1	1	0	0	0	0	2	38213,63	0,100000001	0,957729042	0,00027780697337206867	0,10001051022766064	9,57829689E-005	-0,031279321415258854	0,0011670735374982318	0,010001055643450883
1	1	0	0	0	0	2	38273,63	0,100000001	0,974513471	0,00027780689767789507	0,10001048297775821	9,74615614E-005	-0,029612479520441414	0,0011048814253098304	0,011667897538268322
1	1	0	0	0	0	2	38333,63	0,100000001	1,00422513	0,0002778076565493312	0,1000107561714747	0,000100433317	-0,027945635937902736	0,0010426892501502803	0,013334741120807002
1	1	0	0	0	0	2	38393,63	0,100000001	1,06563437	0,00027780751188389133	0,10001070409191642	0,000106574844	-0,026278793874664099	0,00098049713167785779	0,015001583184045638
1	1	0	0	0	0	2	38453,63	0,100000001	1,11978757	0,00027780704438024093	0,10001053579060259	0,000111990557	-0,024611951172142883	0,00091830498935294246	0,016668425886566854
1	1	0	0	0	0	2	38513,63	0,100000001	1,16580629	0,00027780700879833763	0,10001052298111744	0,000116592899	-0,022945109045276288	0,00085611286850647514	0,01833526801343345
1	1	0	0	0	0	2	38573,63	0,100000001	1,20878887	0,00027780703208140202	0,10001053136302059	0,000120891615	-0,021278267329221462	0,00079392076298794714	0,020002109729488275
1	1	0	0	0	0	2	38633,63	0,100000001	1,25200069	0,00027780681435101562	0,10001045298008163	0,000125213162	-0,019611425568042195	0,00073172865578576563	0,021668951490667542
1	1	0	0	0	0	2	38693,63	0,100000001	1,29662549	0,00027780660943893923	0,10001037921173426	0,000129676002	-0,017944586434335424	0,00066953664661811571	0,023335790624374314
1	1	0	0	0	0	2	38753,63	0,100000001	1,34220505	0,00027780656927658454	0,10001036475328661	0,000134234419	-0,016277747169329136	0,00060734463255150413	0,025002629889380602
1	1	0	0	0	0	2	38813,63	0,100000001	1,37283325	0,00027780678109327955	0,10001044100729666	0,000137297655	-0,014610907202705402	0,00054515259230660243	0,026669469856004336
1	1	0	0	0	0	2	38873,63	0,100000001	1,37512469	0,00027780632552463146	0,10001027700258366	0,0001375266	-0,012944067637180778	0,00048296056702724768	0,028336309421528957
1	1	0	0	0	0	2	38933,63	0,100000001	1,40752876	0,00027780657113260694	0,10001036542145469	0,000140767472	-0,011277227076747014	0,00042076850462649542	0,030003149981962726
1	1	0	0	0	0	2	38993,63	0,100000001	1,47285235	0,00027780699273861117	0,1000105171996159	0,000147300729	-0,0096103861235890061	0,00035857642757267341	0,031669990935120736
1	1	0	0	0	0	2	39053,63	0,100000001	2,26835275	0,00027780729076762995	0,10001062449006248	0,000226859382	-0,0079435435427312154	0,00029638428978718419	0,033336833515978528
1	1	0	0	0	0	2	39113,63	0,100000001	3,05366898	0,00027780726770601338	0,10001061618788053	0,000305399328	-0,006276699665639625	0,00023419210363746902	0,035003677393070131
1	1	0	0	0	0	2	39173,63	0,100000001	3,46682549	0,0002778076396907369	0,10001075010238075	0,000346719811	-0,0046098555155020563	0,00017199990730004128	0,036670521543207699
1	1	0	0	0	0	2	39233,63	0,100000001	3,71952748	0,00027780773357301952	0,10001078390000243	0,00037199285	-0,0029430094746343744	0,00010980764041693094	0,038337367584075386
1	1	0	0	0	0	2	39293,63	0,100000001	3,93501329	0,00027780738537303277	0,10001065854800744	0,000393543276	-0,0012761653470455722	4,7615444920828019E-005	0,040004211711664186
1	1	0	0	0	0	2	39353,63	0,100000001	4,10944557	0,00027780813090254861	0,10001092693863262	0,000410989451	0,00039068052270090106	-1,4576815577519955E-005	0,041671057581410662
1	1	0	0	0	0	2	39391,10	0,100000001	4,20000076	0,00020765546374064352	0,100010658222064	0,000420044846	0,0014317587248649085	-5,3420843044788864E-005	0,042712135783574669