Folder: thesis/Experimentelles/Rohdaten/Batterietests/AlteZelle/Studenten_Batterietests/LLTO_LP30_Li CV/ZView-Export

Note: README.md
# thesis

Zusammenfassung
---------------
Es konnten die Festkörperelektrolytkeramiken LATP, LAGP, LTO und LLTO hergestellt,
mit XRD und MAS-NMR charakterisiert und zu Elektrodensuspensionen weiterverarbeitet
werden. Aus den Daten der MAS-NMR konnten dabei gegenüber der XRD keine Mehrinfor-
mationen gewonnen werden. Die mit den Suspensionen gegossenen und gestanzten Elektro-
denproben wurden mittels REM und EDX untersucht und als Kathode in Testzellen verbaut.
Mit diesen wurden Ladekennlinien erstellt und eine zyklischer Voltametrie durchgeführt. Aus
den Ladekennlinien konnten die Kapazitäten und der Grad der Lithiuminsertation in die
Materialen bestimmt werden. Die zyklische Voltametrie lieferte nicht-reaktive Spannungsbe-
reiche der Materialien.

Für ein noch besseres Verständnis der Lithiumbewegung und -insertation wurde eine in-situ
NMR-Testzelle konzipiert, konstruiert, gebaut und getestet. Für den Test kam dabei eine
Lithium-Schwefel-Zelle zum Einsatz, für welche ein Di?usionskoe?zient sowie ein Spektrum
vor und nach einer 90 minütigen Ladezeit aufgenommen worden ist.

Abstract
--------
The all solid state electrolyte ceramics LATP, LAGP, LTO, and LLTO were successfully
synthesized and characterized by using XRD. MAS-NMR spectroscopy were not able to ge-
nerate additional information. All powders were processed to electrode slurries, casted on
aluminum foils and punched to electrode samples. Those samples were studied by SEM and
EDX and then build into battery test cells. The cells were analyzed by measuring the charge
curves as well as cyclic voltammetry. With the charge curves capacities and the amount of
lithium insertion were calculated. The cyclic voltammetry was able to detect non-reactive
voltage regions.

To be able to better understand lithium movement and insertion a novel in-situ NMR sample
cell was designed, constructed, built and tested. Therefore, a lithium-sulfur-cell was built into
the in-situ sample cell. With this setting a diffusion coeffcient as well as a NMR spectrum
before and after 90 minutes of charging were measured.

File: LLTO_LP30_Li_02_CV_C01_loop0.txt
EC-Lab ASCII FILE
Nb header lines : 3
mode	ox/red	error	control changes	counter inc.	time/s	control/V	Ewe/V	<I>/mA	cycle number	(Q-Qo)/C	P/W
2	0	0	1	0	600,06	2,10843253	2,10868692	-0,0013518956257030366	1	0	2,85072474E-006
2	0	0	0	0	606,83	2,04072666	2,04128122	-0,016226041872869232	1	-0,000103733924	3,31219162E-005
2	0	0	0	0	613,58	1,97322154	1,97361577	-0,017667431175747693	1	-0,000219369686	3,48687208E-005
2	0	0	1	0	620,33	1,90571654	1,90622079	-0,019713000151871997	1	-0,00034689426	3,75773307E-005
2	0	0	0	0	627,08	1,8382113	1,83881593	-0,022710646711251171	1	-0,000491365499	4,17607007E-005
2	0	0	0	0	633,83	1,77070618	1,77127063	-0,027625399331251853	1	-0,00066180079	4,89320591E-005
2	0	0	1	0	640,58	1,70320094	1,7037853	-0,034826539747882662	1	-0,000872272009	5,93369477E-005
2	0	0	1	0	647,33	1,6356957	1,63622022	-0,044146759852689568	1	-0,001140301	7,22338227E-005
2	0	0	0	0	654,08	1,56819069	1,5684042	-0,059111168064797875	1	-0,00148475647	9,2710201E-005
2	0	0	1	0	660,88	1,50028563	1,50082898	-0,10553188237827315	1	-0,0020131967	0,000158385301
2	0	0	1	0	667,63	1,43278039	1,4333638	-0,22844741656445011	1	-0,00309573347	0,000327448244
2	0	0	0	0	674,38	1,36527526	1,36573827	-0,40898747959484627	1	-0,00523198955	0,000558569853
2	0	0	0	0	681,13	1,29777014	1,29832339	-0,59981484261031066	1	-0,00864347816	0,00077875366
2	0	0	1	0	687,88	1,2302649	1,23088837	-0,78489112419386496	1	-0,0133092273	0,000966113352
2	0	0	1	0	694,63	1,16275978	1,16334307	-0,97801014501601818	1	-0,0192878023	0,00113776128
2	0	0	0	0	701,41	1,09495473	1,09552717	-1,1041340613737685	1	-0,0263922792	0,00120960886
2	0	0	1	0	708,16	1,02744949	1,02795172	-1,161791549374664	1	-0,0340777077	0,00119426567
2	0	0	1	0	714,91	0,959944308	0,9602862	-1,1517255551492198	1	-0,0419314913	0,00110598619
2	0	0	0	0	721,66	0,892439187	0,893051684	-1,0706625245511514	1	-0,0494617783	0,00095615699
2	0	0	0	0	728,41	0,824934006	0,825175643	-1,089740848168736	1	-0,0566004924	0,000899227627
2	0	0	1	0	735,16	0,757428885	0,757740557	-1,3486951502660914	1	-0,064772822	0,00102196098
2	0	0	0	0	741,91	0,689923763	0,690225363	-1,5982262250036035	1	-0,074764505	0,00110313622
2	0	0	0	0	748,66	0,622418582	0,622660041	-1,7828871278713178	1	-0,0862025023	0,00111013255
2	0	0	1	0	755,41	0,554913402	0,555174887	-1,9551572290559632	1	-0,0988134146	0,00108545425
2	1	0	0	0	762,08	0,511810184	0,512239814	-1,9246804981182138	1	-0,112371325	0,000985897961
2	1	0	0	0	768,83	0,579315305	0,579634726	-1,1209820670386126	1	-0,12245971	0,000649760128
2	1	0	1	0	775,58	0,646820426	0,647069752	-0,54533547038833139	1	-0,127991989	0,000352870091
2	1	0	1	0	782,38	0,714725614	0,715246618	-0,094735389711180006	1	-0,130105287	6,7759167E-005
2	1	0	0	0	789,21	0,783030748	0,783413351	0,27802849141880826	1	-0,129440963	0,000217811234
2	1	0	1	0	795,96	0,850535989	0,850958645	0,60095663446312026	1	-0,126452491	0,000511389226
2	1	0	1	0	802,71	0,91804105	0,918543935	0,89552649886657677	1	-0,121384524	0,000822580419
2	1	0	0	0	809,49	0,985846341	0,986169636	1,1663719490170461	1	-0,114375919	0,00115024066
2	1	0	0	0	816,24	1,0533514	1,05376494	1,4153901611765232	1	-0,105651259	0,00149148854
2	1	0	1	0	822,99	1,12085652	1,12111974	1,6031197849661075	1	-0,0953698903	0,00179728924
2	1	0	0	0	829,74	1,18836176	1,18886542	1,5508751018593686	1	-0,0845913291	0,00184378179
2	1	0	0	0	836,49	1,25586689	1,25621033	1,4072864974538461	1	-0,0746130124	0,0017678478
2	1	0	1	0	843,24	1,32337201	1,32359517	1,3509129586939928	1	-0,0653664246	0,00178806181
2	1	0	1	0	849,99	1,39087725	1,39145124	1,3532908375685437	1	-0,0562421978	0,0018830382
2	1	0	0	0	856,74	1,45838225	1,45878601	1,3532762092848571	1	-0,0471054167	0,00197414029
2	1	0	0	0	863,49	1,52588749	1,52649164	1,4227304387216738	1	-0,0377757475	0,00217178604
2	1	0	1	0	870,24	1,59339261	1,59383631	1,4318974092602712	1	-0,0280221533	0,00228221016
2	1	0	0	0	876,99	1,66089773	1,66144192	1,0901193208992482	1	-0,0192675795	0,0018111699
2	1	0	0	0	883,78	1,72880292	1,72927785	0,41543553521235667	1	-0,0140127381	0,000718403491
2	1	0	1	0	890,53	1,79630816	1,79681301	0,1776524285475407	1	-0,0123158032	0,000319208193
2	1	0	1	0	897,28	1,86381316	1,86444867	0,12698946776799869	1	-0,0113058249	0,000236765351
2	1	0	0	0	904,03	1,9313184	1,93177342	0,099224226432852442	1	-0,0105486289	0,00019167873
2	1	0	1	0	910,79	1,998824	1,99918902	0,082769454239652096	1	-0,00993648916	0,000165471778
2	1	0	1	0	917,54	2,06632876	2,06676364	0,072095289302523955	1	-0,00941411313	0,000149003929
2	1	0	0	0	924,29	2,13383365	2,13424873	0,064806825112706522	1	-0,00895139482	0,000138313888
2	1	0	0	0	931,04	2,20133901	2,20214462	0,06003203149884928	1	-0,00852904562	0,000132199217
2	1	0	1	0	937,79	2,26884389	2,26960993	0,056807574757840595	1	-0,0081336787	0,000128931031
2	1	0	1	0	944,54	2,33634925	2,3368144	0,054813789494801203	1	-0,00775620062	0,000128089654
2	1	0	0	0	951,29	2,40385437	2,40429974	0,054092943998208934	1	-0,00738764601	0,000130055647
2	1	0	1	0	958,04	2,47135949	2,47180486	0,054944425433252922	1	-0,00701827975	0,000135811904
2	1	0	1	0	964,79	2,53886485	2,5394001	0,05602534943803511	1	-0,00664147502	0,000142270772
2	1	0	0	0	971,54	2,60636973	2,60686517	0,057541801400172397	1	-0,00625697896	0,000150003718
2	1	0	0	0	978,29	2,67387509	2,67424011	0,059548272188597811	1	-0,00586001063	0,000159246381
2	1	0	1	0	985,04	2,74138021	2,74190593	0,062420504613934554	1	-0,00544600375	0,000171151158
2	1	0	1	0	991,79	2,8088851	2,80924964	0,065261222393527168	1	-0,00501270453	0,000183335069
2	1	0	0	0	998,54	2,8763907	2,8767457	0,068460282927844672	1	-0,00455920491	0,000196942827
2	1	0	1	0	1005,29	2,94389558	2,94424081	0,072009731976625741	1	-0,00408363016	0,000212013998
2	1	0	1	0	1012,04	3,0114007	3,01182604	0,076255560658561536	1	-0,00358214951	0,000229668483
2	1	0	0	0	1018,79	3,07890582	3,07940149	0,081939870064767437	1	-0,00304749911	0,000252325757
2	1	0	0	0	1025,54	3,14641094	3,14694667	0,089227321053234394	1	-0,00246932451	0,000280793611
2	1	0	1	0	1032,29	3,2139163	3,21436167	0,099937522124188608	1	-0,00183115643	0,000321235333
2	1	0	0	0	1039,04	3,28142118	3,28169632	0,11743445399527718	1	-0,0011004	0,000385384221
2	1	0	0	0	1045,80	3,34892631	3,349262	0,14580265692590365	1	-0,000217613284	0,000488331309
2	1	0	1	0	1052,55	3,41643167	3,41675687	0,18958546194092688	1	0,000906762492	0,000647767447
2	1	0	1	0	1059,30	3,48393679	3,48430181	0,24867803851763392	1	0,00238127285	0,000866469345
2	1	0	0	0	1066,05	3,55144215	3,55186749	0,32168529368937018	1	0,00430134125	0,00114258355
2	1	0	1	0	1072,80	3,61894703	3,61948276	0,40605564105393734	1	0,00675526401	0,00146971142
2	1	0	1	0	1079,55	3,68645215	3,68687797	0,4888859555746112	1	0,00978665985	0,00180246285
2	1	0	0	0	1086,30	3,75395751	3,75433302	0,54043424796934093	1	0,0132852402	0,00202897005
2	1	0	0	0	1093,05	3,82146263	3,82201838	0,56232494829843386	1	0,0170186125	0,00214921637
2	1	0	1	0	1099,80	3,88896799	3,88943362	0,57589228094244762	1	0,0208643489	0,00223989482
2	1	0	1	0	1106,55	3,95647287	3,95682859	0,5871019903570409	1	0,0247921702	0,00232306193
2	1	0	0	0	1113,30	4,02397823	4,02451372	0,59859172332411072	1	0,0287966542	0,0024090407
2	1	0	1	0	1120,05	4,09148312	4,09199905	0,60994236947347738	1	0,0328777917	0,0024958835
2	1	0	1	0	1126,80	4,158988	4,159482	0,61543961699377011	1	0,0370213836	0,00255991006
2	0	0	0	1	1133,48	4,17418957	4,17488194	0,42421530497570893	1	0,0408477187	0,00177104876
2	0	0	1	1	1140,23	4,10668421	4,10734653	0,22171600838191808	1	0,0429092869	0,000910664501
2	0	0	1	1	1146,98	4,03917933	4,0396409	0,13575877823556493	1	0,0440799892	0,00054841669
2	0	0	0	1	1153,73	3,97167373	3,97213578	0,0886785085701072	1	0,0448216535	0,000352243078
2	0	0	0	1	1160,48	3,90416884	3,90458059	0,059711437517156173	1	0,045312956	0,000233148123
2	0	0	1	1	1167,28	3,83626366	3,83657432	0,040696686841935501	1	0,0456473418	0,000156135866
2	0	0	0	1	1174,03	3,7687583	3,76904893	0,027826238084041248	1	0,0458745994	0,000104878454
2	0	0	0	1	1180,78	3,70125341	3,70172429	0,017429307612474022	1	0,046025198	6,45184919E-005
2	0	0	1	1	1187,53	3,63374782	3,63408875	0,0074365198161104038	1	0,0461071134	2,7024973E-005
2	0	0	1	1	1194,32	3,56584334	3,56623268	-0,0014164527259102507	1	0,0461249799	5,05139997E-006
2	0	0	0	1	1201,07	3,49833775	3,49887776	-0,0074169100504756698	1	0,0460933857	2,59508615E-005
2	0	0	1	1	1207,86	3,43043232	3,43101311	-0,011472498723155616	1	0,0460272655	3,9362294E-005
2	0	0	1	1	1214,61	3,36292744	3,36335635	-0,014844442024089686	1	0,0459359735	4,99271482E-005
2	0	0	0	1	1221,36	3,29542232	3,29582119	-0,017778746070689523	1	0,0458237901	5,85955677E-005
2	0	0	0	1	1228,11	3,22791743	3,22830582	-0,020486681237040726	1	0,0456934199	6,61372687E-005
2	0	0	1	1	1234,86	3,16041183	3,16079068	-0,022715909954664938	1	0,045546107	7,18002339E-005
2	0	0	1	1	1241,61	3,09290695	3,09348607	-0,024528266978450189	1	0,0453844555	7,58778551E-005
2	0	0	0	1	1248,36	3,02540183	3,02582049	-0,026187066677569648	1	0,0452110916	7,92373612E-005
2	0	0	1	1	1255,11	2,95789647	2,9581449	-0,027439397429892099	1	0,0450285152	8,116971E-005
2	0	0	1	1	1261,86	2,89039183	2,89088035	-0,028132877836469562	1	0,0448388271	8,13287843E-005
2	0	0	0	1	1268,61	2,82288647	2,8234148	-0,028857430113324282	1	0,0446439907	8,14764935E-005
2	0	0	0	1	1275,36	2,75538135	2,75600028	-0,029210173563721299	1	0,0444458053	8,05032469E-005
2	0	0	1	1	1282,11	2,68787622	2,68834448	-0,029472647545238342	1	0,0442456342	7,92326318E-005
2	0	0	0	1	1288,86	2,62037086	2,62080932	-0,029739917003704819	1	0,044044055	7,79426482E-005
2	0	0	0	1	1295,61	2,55286574	2,55309367	-0,030289023551934854	1	0,0438401289	7,73307111E-005
2	0	0	1	1	1302,37	2,48536062	2,48571873	-0,031256622974372819	1	0,0436312817	7,76951711E-005
2	0	0	1	1	1309,12	2,4178555	2,41837406	-0,03259587343200121	1	0,0434143171	7,88290126E-005
2	0	0	0	1	1315,87	2,35035038	2,35081863	-0,034196199179859834	1	0,0431870073	8,03890653E-005
2	0	0	0	1	1322,62	2,28284526	2,2832334	-0,036207771627232435	1	0,0429476239	8,2670791E-005
2	0	0	1	1	1329,37	2,21534014	2,2159183	-0,038264814560534278	1	0,0426949337	8,47917036E-005
2	0	0	0	1	1336,12	2,14783478	2,1481328	-0,040269011224154381	1	0,0424279273	8,65031834E-005
2	0	0	1	1	1340,06	2,10843253	2,10876703	-0,041968170760406387	1	0,0422649756	8,85010959E-005

File: LLTO_LP30_Li_02_CV_C01_loop1.txt
EC-Lab ASCII FILE
Nb header lines : 3
mode	ox/red	error	control changes	counter inc.	time/s	control/V	Ewe/V	<I>/mA	cycle number	(Q-Qo)/C	P/W
2	0	0	1	0	1340,20	2,10843253	2,10876703	-0,04892837256193161	2	0	0,000103178536
2	0	0	0	0	1346,98	2,04062676	2,04106069	-0,044369638567635206	2	-0,00029331533	9,05611232E-005
2	0	0	0	0	1353,78	1,97262144	1,97304428	-0,047282167380520435	2	-0,000606466725	9,3289811E-005
2	0	0	1	0	1360,58	1,90461624	1,905038	-0,050479272671509312	2	-0,000940995116	9,61649348E-005
2	0	0	0	0	1367,38	1,83661127	1,83720195	-0,054599216130251648	2	-0,00130005658	0,000100309786
2	0	0	0	0	1374,18	1,76860607	1,7691654	-0,060115104793415859	2	-0,00169093802	0,00010635356
2	0	0	1	0	1380,98	1,70060098	1,70086825	-0,067759540999153152	2	-0,00212586182	0,000115250055
2	0	0	1	0	1387,78	1,63259614	1,63303292	-0,077653805663458368	2	-0,00262151565	0,000126811225
2	0	0	0	0	1394,58	1,56459033	1,56511617	-0,094065188954118694	2	-0,00319954823	0,000147222949
2	0	0	1	0	1401,42	1,49618518	1,4966687	-0,14753907426105206	2	-0,00398989813	0,000220817121
2	0	0	1	0	1408,22	1,42817998	1,42869234	-0,28294525078187328	2	-0,00540910801	0,000404241699
2	0	0	0	0	1415,02	1,36017489	1,36068583	-0,47191960550844755	2	-0,00796526298	0,000642134342
2	0	0	0	0	1421,82	1,29216969	1,29265952	-0,66332873050123456	2	-0,0118355155	0,000857458217
2	0	0	1	0	1428,62	1,22416449	1,22464299	-0,8506301480034999	2	-0,0169684291	0,00104171829
2	0	0	0	0	1435,46	1,15575922	1,15594482	-1,0359968117748704	2	-0,0234573931	0,0011975551
2	0	0	0	0	1442,27	1,08775401	1,08831942	-1,1500618020072579	2	-0,0309349727	0,00125163456
2	0	0	1	0	1449,07	1,01974893	1,02041328	-1,1973277718449645	2	-0,0389546305	0,00122176914
2	0	0	0	0	1455,87	0,951743722	0,952186406	-1,176429252140224	2	-0,0470721312	0,00112017989
2	0	0	0	0	1462,67	0,883738577	0,884119868	-1,0960642412925771	2	-0,0548100807	0,000969052198
2	0	0	1	0	1469,47	0,815733373	0,81616348	-1,1645630551502059	2	-0,0623302869	0,000950473826
2	0	0	1	0	1476,27	0,747728169	0,748056889	-1,4451984496166333	2	-0,0711733848	0,00108109065
2	0	0	0	0	1483,07	0,679722965	0,679839909	-1,6978779683510509	2	-0,0819029212	0,00115428516
2	0	0	1	0	1489,87	0,611717761	0,61228466	-1,9014874106893984	2	-0,0941619053	0,00116425159
2	0	0	1	0	1496,67	0,543712556	0,543957472	-2,1022736423959357	2	-0,107770137	0,00114354747
2	1	0	0	0	1503,42	0,523811102	0,524459779	-1,8645133761068138	2	-0,122138239	0,000977862277
2	1	0	1	0	1510,22	0,591816247	0,592115283	-1,069469336730743	2	-0,131946638	0,000633249118
2	1	0	1	0	1517,06	0,660221457	0,660763264	-0,48541689276074496	2	-0,137168303	0,000320745661
2	1	0	0	0	1523,90	0,728626728	0,729050398	-0,03016204903057465	2	-0,13887006	2,19896538E-005
2	1	0	1	0	1530,74	0,797031879	0,797547936	0,34362852456979418	2	-0,137758315	0,000274060207
2	1	0	1	0	1537,54	0,865037084	0,86563462	0,66769672123094554	2	-0,134296909	0,000577981409
2	1	0	0	0	1544,34	0,933042228	0,933640957	0,96153004715839782	2	-0,128738388	0,000897723832
2	1	0	0	0	1551,17	1,00134742	1,00167751	1,2303560112292579	2	-0,121233143	0,00123241998
2	1	0	1	0	1557,97	1,06935263	1,06973398	1,4766013659536829	2	-0,112016171	0,0015795707
2	1	0	0	0	1564,78	1,13735783	1,13763011	1,6336657479405331	2	-0,101315387	0,00185850728
2	1	0	0	0	1571,58	1,20536292	1,20590711	1,5457721855491382	2	-0,0903945342	0,00186405762
2	1	0	1	0	1578,38	1,27336812	1,27371311	1,4021178750942074	2	-0,0803932995	0,0017858959
2	1	0	1	0	1585,18	1,34137356	1,34173954	1,359682419647779	2	-0,071056366	0,00182433962
2	1	0	0	0	1591,98	1,40937865	1,4098562	1,3587462911382304	2	-0,0618117042	0,00191563694
2	1	0	1	0	1598,78	1,47738385	1,47783256	1,3636679782842576	2	-0,0525771528	0,00201527285
2	1	0	1	0	1605,58	1,54538906	1,54597926	1,4421940778071712	2	-0,0430472605	0,00222960208
2	1	0	0	0	1612,38	1,61339414	1,61383533	1,385174229741093	2	-0,033260636	0,0022354431
2	1	0	0	0	1619,18	1,68139935	1,68199217	0,94204475947966413	2	-0,0251284949	0,00158451195
2	1	0	1	0	1626,02	1,74980462	1,75024915	0,28516134666278915	2	-0,0210305806	0,000499103393
2	1	0	0	0	1632,82	1,8178097	1,81806505	0,15931391537499952	2	-0,0196467675	0,000289643067
2	1	0	0	0	1639,62	1,88581491	1,88633215	0,11768198281060906	2	-0,0187183898	0,000221987313
2	1	0	1	0	1646,42	1,95382011	1,95421815	0,094702386491310912	2	-0,018001616	0,000185069119
2	1	0	1	0	1653,22	2,02182531	2,02246523	0,081042216431038822	2	-0,0174054448	0,000163905061
2	1	0	0	0	1660,02	2,0898304	2,09039116	0,072155104736642214	2	-0,0168843027	0,000150832391
2	1	0	1	0	1666,82	2,15783572	2,15824723	0,066177330833549286	2	-0,0164136663	0,000142827048
2	1	0	1	0	1673,62	2,22584081	2,2263341	0,062295729837690496	2	-0,0159753226	0,000138691103
2	1	0	0	0	1680,42	2,29384613	2,29427028	0,060258392981874522	2	-0,0155568402	0,000138249045
2	1	0	0	0	1687,22	2,36185122	2,36234713	0,059776885493192819	2	-0,0151471123	0,00014121375
2	1	0	1	0	1694,03	2,42985654	2,43026304	0,05974783641674231	2	-0,0147397108	0,000145202954
2	1	0	0	0	1700,83	2,49786162	2,49833965	0,061334480803149517	2	-0,014326225	0,000153234359
2	1	0	0	0	1707,63	2,56586671	2,56609535	0,06276908736132736	2	-0,0139025841	0,000161071468
2	1	0	1	0	1714,43	2,63387203	2,63443255	0,065083490374187699	2	-0,0134662604	0,000171458072
2	1	0	1	0	1721,23	2,70187712	2,70224881	0,06773572663466121	2	-0,0130129121	0,000183038792
2	1	0	0	0	1728,03	2,76988244	2,77048564	0,071053647843655091	2	-0,0125391381	0,000196853114
2	1	0	1	0	1734,83	2,83788753	2,83842182	0,07441765038917472	2	-0,012042677	0,000211228689
2	1	0	1	0	1741,63	2,90589285	2,90634823	0,078435132900873677	2	-0,011521033	0,000227959812
2	1	0	0	0	1748,43	2,97389793	2,97440457	0,082883863438231283	2	-0,0109708449	0,000246530137
2	1	0	0	0	1755,23	3,04190373	3,04253221	0,088546429675992794	2	-0,0103866486	0,000269405369
2	1	0	1	0	1762,03	3,10990834	3,11052799	0,095272863380766016	2	-0,00975985639	0,00029634891
2	1	0	0	0	1768,83	3,17791343	3,17847371	0,104048307597016	2	-0,00908110198	0,0003307148
2	1	0	0	0	1775,63	3,24591875	3,24646997	0,11546091362833954	2	-0,00833508559	0,000374840398
2	1	0	1	0	1782,43	3,31392384	3,31435633	0,13213509119426158	2	-0,00749420421	0,00043794277
2	1	0	0	0	1789,23	3,3819294	3,38244343	0,15629665388365322	2	-0,00651513692	0,000528664561
2	1	0	0	0	1796,03	3,44993424	3,45030904	0,18810200345857696	2	-0,00534532312	0,000649010064
2	1	0	1	0	1802,83	3,51793933	3,51838565	0,22524032834917264	2	-0,00394162722	0,000792482344
2	1	0	1	0	1809,63	3,58594465	3,58654261	0,27005946170538662	2	-0,00225960766	0,000968579785
2	1	0	0	0	1816,43	3,65394974	3,65446877	0,31855318935898413	2	-0,000253558363	0,00116414274
2	1	0	1	0	1823,24	3,72195601	3,72263622	0,34996816350142266	2	0,00203654915	0,00130280422
2	1	0	1	0	1830,04	3,78996015	3,79046106	0,36429737073679738	2	0,0044705933	0,00138085498
2	1	0	0	0	1836,84	3,85796523	3,85840774	0,37769380638686291	2	0,00699495897	0,00145729666
2	1	0	0	0	1843,64	3,92597055	3,92638397	0,39273099352915962	2	0,00961530302	0,00154201267
2	1	0	1	0	1850,44	3,99397564	3,99469137	0,41079243272542867	2	0,0123484703	0,00164098898
2	1	0	1	0	1857,24	4,06197977	4,06253481	0,43020831106451942	2	0,0152097009	0,00174773624
2	1	0	0	0	1864,04	4,12998581	4,13036346	0,4451612960547191	2	0,0181946345	0,00183867791
2	1	0	1	0	1870,84	4,19799137	4,19848967	0,45614032059287002	2	0,0212581754	0,00191510038
2	0	0	0	1	1877,57	4,13468599	4,13529348	0,18660589728456877	2	0,0231962353	0,000771670137
2	0	0	0	1	1884,37	4,06668139	4,06733894	0,10255159453178461	2	0,0241372958	0,000417112082
2	0	0	1	1	1891,17	3,9986763	3,99924207	0,06111163028981536	2	0,0246779528	0,000244400202
2	0	0	1	1	1898,01	3,93027091	3,9306345	0,036367496941238528	2	0,0250024833	0,000142947334
2	0	0	0	1	1904,81	3,86226583	3,8626883	0,021007343699845082	2	0,0251916945	8,1144819E-005
2	0	0	1	1	1911,61	3,7942605	3,79467154	0,01086370429887512	2	0,0252957661	4,12241898E-005
2	0	0	1	1	1918,45	3,72585487	3,72641492	0,0033127579517895347	2	0,0253422353	1,23447107E-005
2	0	0	0	1	1925,25	3,65785003	3,65825796	-0,0029183197687719482	2	0,0253425092	1,06759662E-005
2	0	0	0	1	1932,05	3,5898447	3,59047198	-0,0089914041430650957	2	0,0253007505	3,22833839E-005
2	0	0	1	1	1938,89	3,52143979	3,52210474	-0,013051814069816202	2	0,0252236854	4,59698567E-005
2	0	0	0	1	1945,69	3,45343447	3,45386767	-0,01604449247436912	2	0,0251219738	5,54155522E-005
2	0	0	0	1	1952,50	3,38542938	3,38577104	-0,018721332860877786	2	0,0250013061	6,33861491E-005
2	0	0	1	1	1959,30	3,31742406	3,317765	-0,02104250563328	2	0,0248644371	6,98140866E-005
2	0	0	1	1	1966,10	3,24941874	3,24992871	-0,022985229317176464	2	0,0247128457	7,47003578E-005
2	0	0	0	1	1972,90	3,18141389	3,18190217	-0,024901516638540947	2	0,024547819	7,92341889E-005
2	0	0	1	1	1979,70	3,11340857	3,11386585	-0,026491039306468566	2	0,0243709125	8,24895396E-005
2	0	0	1	1	1986,50	3,04540348	3,04569912	-0,02782698434505937	2	0,0241842996	8,47526244E-005
2	0	0	0	1	1993,30	2,9773984	2,97771263	-0,028684443784489645	2	0,0239902977	8,54140308E-005
2	0	0	0	1	2000,10	2,90939379	2,91002798	-0,029249565181123424	2	0,0237905942	8,51170553E-005
2	0	0	1	1	2006,90	2,84138799	2,84184003	-0,029941249910431597	2	0,0235868897	8,50882425E-005
2	0	0	0	1	2013,70	2,77338266	2,77390385	-0,030147409532219392	2	0,0233807154	8,36260151E-005
2	0	0	0	1	2020,50	2,70537758	2,70584726	-0,030310970255717165	2	0,0231731478	8,2016857E-005
2	0	0	1	1	2027,30	2,63737226	2,63783121	-0,030546110841290438	2	0,0229645818	8,05754826E-005
2	0	0	1	1	2034,10	2,56936789	2,56991625	-0,03093310031675456	2	0,0227539279	7,94954758E-005
2	0	0	0	1	2040,90	2,50136185	2,50182819	-0,031993460045972147	2	0,0225383975	8,00421403E-005
2	0	0	1	1	2047,70	2,433357	2,43382192	-0,033372521254932301	2	0,0223148335	8,12227736E-005
2	0	0	1	1	2054,50	2,36535144	2,36577511	-0,034897814427191974	2	0,0220806524	8,25603784E-005
2	0	0	0	1	2061,30	2,29734635	2,29784918	-0,036942999082384634	2	0,0218342543	8,48894415E-005
2	0	0	1	1	2068,10	2,22934055	2,2297318	-0,038992285057474374	2	0,0215744805	8,69423384E-005
2	0	0	1	1	2074,90	2,16133595	2,16174603	-0,041061732869517549	2	0,0213004276	8,87650385E-005
2	0	0	1	1	2080,16	2,10873246	2,10964918	-0,043521298095583917	2	0,0210782457	9,18146688E-005