Folder: thesis/Experimentelles/Rohdaten/Batterietests/AlteZelle/Studenten_Batterietests/LLTO_LP30_Li CV/ZView-Export (part 4)

File: LLTO_LP30_Li_05_GCPL_C01_loop5.txt
EC-Lab ASCII FILE
Nb header lines : 3
mode	ox/red	error	control changes	Ns changes	counter inc.	Ns	time/s	control/V/mA	Ewe/V	dq/mA.h	<I>/mA	P/W	(Q-Qo)/mA.h	x	Capacity/mA.h
1	0	0	1	1	0	1	27211,10	-0,100000001	4,18833399	0	0	0	0	0	0
1	0	0	1	0	0	1	27271,10	-0,100000001	2,26307082	-0,00027773772034338778	-0,099985580534164365	0,000226274453	-0,0016650511546315699	6,2125297264390797E-005	0,0016650511546315699
1	0	0	1	0	0	1	27331,10	-0,100000001	1,48920405	-0,00027773766904655427	-0,099985562067304077	0,000148898907	-0,0033314772253142746	0,00012430189449524374	0,0033314772253142746
1	0	0	1	0	0	1	27391,10	-0,100000001	1,40637028	-0,00027773806192436157	-0,099985703503316429	0,000140616918	-0,0049979045961845542	0,0001864785402378432	0,0049979045961845542
1	0	0	1	0	0	1	27451,10	-0,100000001	1,35670447	-0,00027773744669970541	-0,09998548202243753	0,000135650756	-0,006664330689011625	0,00024865513829493222	0,006664330689011625
1	0	0	1	0	0	1	27511,10	-0,100000001	1,31786549	-0,00027773712954546016	-0,099985367846907853	0,000131767272	-0,0083307542632324262	0,00031083164237943501	0,0083307542632324262
1	0	0	1	0	0	1	27571,10	-0,100000001	1,30115736	-0,00027773738623782992	-0,099985460256162086	0,000130096814	-0,0099971803610145472	0,00037300824062140365	0,0099971803610145472
1	0	0	1	0	0	1	27631,10	-0,100000001	1,26695836	-0,00027773767282234301	-0,099985563426588045	0,000126677551	-0,011663605735472781	0,00043518481187518541	0,011663605735472781
1	0	0	1	0	0	1	27691,10	-0,100000001	1,22743201	-0,00027773811629911267	-0,099985723078227059	0,000122725673	-0,013330032496677366	0,00049736143487033805	0,013330032496677366
1	0	0	1	0	0	1	27751,10	-0,100000001	1,18580508	-0,00027773813649225568	-0,099985730347758618	0,000118563585	-0,014996459934373971	0,00055953808310631776	0,014996459934373971
1	0	0	1	0	0	1	27811,10	-0,100000001	1,14039743	-0,00027773757302264371	-0,099985527498695872	0,000114023242	-0,0166628875038312	0,00062171473625846323	0,0166628875038312
1	0	0	1	0	0	1	27871,10	-0,100000001	1,08884108	-0,00027773798169154259	-0,099985674619501235	0,000108868509	-0,018329313966393338	0,00068389134811086464	0,018329313966393338
1	0	0	1	0	0	1	27931,10	-0,100000001	1,03058255	-0,00027773814271224867	-0,099985732586956134	0,000103043552	-0,019995742353752118	0,0007460680317800169	0,019995742353752118
1	0	0	1	0	0	1	27991,10	-0,100000001	0,979217231	-0,0002777394756335351	-0,09998621243862505	9,79082251E-005	-0,02166217371027655	0,00080824482623273152	0,02166217371027655
1	0	0	1	0	0	1	28051,10	-0,100000001	0,951854229	-0,00027773925868007872	-0,099986134335379814	9,5172225E-005	-0,02332861187809361	0,00087042187482393203	0,02332861187809361
1	0	0	1	0	0	1	28111,10	-0,100000001	0,937972248	-0,00027774000801559952	-0,099986404096170573	9,37844743E-005	-0,02499505121038592	0,00093259896686326976	0,02499505121038592
1	0	0	1	0	0	1	28171,10	-0,100000001	0,927890122	-0,0002777401248601576	-0,099986446160211994	9,2776434E-005	-0,026661489804564531	0,00099477603136259277	0,026661489804564531
1	0	0	1	0	0	1	28231,10	-0,100000001	0,916719615	-0,00027773975335268512	-0,099986312417520282	9,16594145E-005	-0,028327929784935661	0,0010569531475826229	0,028327929784935661
1	0	0	1	0	0	1	28291,10	-0,100000001	0,904078782	-0,00027774017190891837	-0,099986463097766054	9,03956388E-005	-0,02999437166241129	0,0011191303345861722	0,02999437166241129
1	0	0	1	0	0	1	28351,10	-0,100000001	0,89042592	-0,00027774083261274627	-0,099986700951146995	8,90307492E-005	-0,031660817359396019	0,0011813076641007416	0,031660817359396019
1	0	0	1	0	0	1	28411,10	-0,100000001	0,876161993	-0,00027774041862992778	-0,099986551917330522	8,76044141E-005	-0,03332726071938487	0,0012434849064188526	0,03332726071938487
1	0	0	1	0	0	1	28471,10	-0,100000001	0,861554444	-0,00027774005398112867	-0,099986420643761254	8,61437438E-005	-0,034993702684187514	0,0013056620966806902	0,034993702684187514
1	0	0	1	0	0	1	28531,10	-0,100000001	0,846584022	-0,00027773970148257082	-0,099986293744278886	8,46467956E-005	-0,036660143447932973	0,0013678392421294698	0,036660143447932973
1	0	0	1	0	0	1	28591,10	-0,100000001	0,831174433	-0,00027773960039060979	-0,099986257351172493	8,31060242E-005	-0,03832658161593465	0,0014300162907275581	0,03832658161593465
1	0	0	1	0	0	1	28651,10	-0,100000001	0,815459311	-0,00027773992624258003	-0,0999863746578832	8,15348176E-005	-0,039993021960610611	0,0014921934205402912	0,039993021960610611
1	0	0	1	0	0	1	28709,69	-0,100000001	0,799973369	-0,00023861703261857232	-0,099986187097342464	7,99862901E-005	-0,041620338427088198	0,0015529107858548291	0,041620338427088198
1	1	0	0	0	0	2	28759,69	0,100000001	0,852821648	0,00027780649569920365	0,10001033966255786	8,52909798E-005	-0,040231299946173478	0,0015010838925498006	0,0013890384809147154
1	1	0	0	0	0	2	28819,69	0,100000001	0,876422942	0,00027780635733612714	0,1000102898518497	8,7651315E-005	-0,038564461624682643	0,0014388919136870192	0,0030558768024055494
1	1	0	0	0	0	2	28879,69	0,100000001	0,897885621	0,00027780593766354854	0,10001013876971957	8,97976643E-005	-0,036897626767142227	0,0013767000640688854	0,004722711659945961
1	1	0	0	0	0	2	28939,69	0,100000001	0,918011665	0,00027780598758740563	0,10001015674230832	9,18104924E-005	-0,035230791161790355	0,0013145081865489006	0,0063895472652978368
1	1	0	0	0	0	2	28999,69	0,100000001	0,937202036	0,00027780648805821933	0,10001033691180346	9,37298901E-005	-0,033563952579638067	0,0012523161979604899	0,0080563858474501299
1	1	0	0	0	0	2	29059,69	0,100000001	0,955284894	0,00027780664435981046	0,10001039318037693	9,55384166E-005	-0,031897115462635405	0,0011901242640387818	0,0097232229644527846
1	1	0	0	0	0	2	29119,69	0,100000001	0,97239393	0,00027780677406489846	0,1000104398742092	9,72495473E-005	-0,030230275074034381	0,00112793220804934	0,011390063353053811
1	1	0	0	0	0	2	29179,69	0,100000001	0,998840392	0,00027780637942627075	0,10001029780430147	9,98943215E-005	-0,028563435415129978	0,0010657401792858602	0,013056903011958218
1	1	0	0	0	0	2	29239,69	0,100000001	1,0586648	0,00027780652507767082	0,10001035023880616	0,000105877436	-0,026896597156638768	0,0010035482027736795	0,014723741270449427
1	1	0	0	0	0	2	29299,69	0,100000001	1,11382997	0,00027780639040966832	0,10001030175832466	0,000111394475	-0,02522975783426633	0,00094135618656665971	0,016390580592821869
1	1	0	0	0	0	2	29359,69	0,100000001	1,16053605	0,00027780663056713011	0,10001038821501195	0,000116065661	-0,023562917124274982	0,0008791641185857129	0,018057421302813216
1	1	0	0	0	0	2	29419,69	0,100000001	1,20361423	0,0002778066480499175	0,10001039450881549	0,000120373938	-0,021896077617992403	0,00081697209551675866	0,019724260809095795
1	1	0	0	0	0	2	29479,69	0,100000001	1,24674964	0,00027780680112292371	0,1000104496150984	0,000124687998	-0,020229239171035866	0,00075478011197268326	0,021391099256052333
1	1	0	0	0	0	2	29539,69	0,100000001	1,29106891	0,00027780666576491462	0,10001040088621453	0,000129120323	-0,018562399342985894	0,00069258807689815475	0,023057939084102304
1	1	0	0	0	0	2	29599,69	0,100000001	1,33649564	0,00027780658134818077	0,10001037049618998	0,00013366343	-0,016895558981127904	0,00063039602190653158	0,024724779445960294
1	1	0	0	0	0	2	29659,69	0,100000001	1,37329149	0,00027780604944957629	0,10001017901269005	0,00013734313	-0,015228721301506653	0,00056820406699276736	0,026391617125581546
1	1	0	0	0	0	2	29719,69	0,100000001	1,37290967	0,00027780648802096643	0,10001033689839242	0,000137305164	-0,013561881989907747	0,00050601205118772269	0,028058456437180451
1	1	0	0	0	0	2	29779,69	0,100000001	1,4016093	0,00027780636546678013	0,1000102927788848	0,000140175354	-0,011895043024696686	0,00044382004830687411	0,029725295402391514
1	1	0	0	0	0	2	29839,69	0,100000001	1,46215928	0,00027780692427522605	0,10001049394992778	0,000146231265	-0,010228204087404605	0,00038162804646772032	0,031392134339683603
1	1	0	0	0	0	2	29899,69	0,100000001	2,12754035	0,00027780634667186272	0,10001028601271446	0,000212775922	-0,008561365359444448	0,00031943605243902202	0,033058973067643757
1	1	0	0	0	0	2	29959,69	0,100000001	2,97005224	0,00027780720068762698	0,10001059345839331	0,000297036691	-0,0068945249251138291	0,00025724399474334758	0,034725813501974368
1	1	0	0	0	0	2	30019,69	0,100000001	3,39976406	0,00027780650727036922	0,1000103438281775	0,000340011582	-0,0052276836312834054	0,00019505190497857978	0,036392654795804794
1	1	0	0	0	0	2	30079,69	0,100000001	3,63304663	0,00027780638840918742	0,10001030103815154	0,000363342086	-0,003560843680913527	0,00013285986534013123	0,038059494746174669
1	1	0	0	0	0	2	30139,69	0,100000001	3,83501339	0,00027780650340310406	0,10001034243596202	0,000383540988	-0,0018940043973052128	7,0667850579453133E-005	0,039726334029782982
1	1	0	0	0	0	2	30199,69	0,100000001	4,00587463	0,00027780610101007754	0,10001019757447074	0,000400628312	-0,00022716707289619187	8,4759089191348211E-006	0,041393171354192013
1	1	0	0	0	0	2	30259,69	0,100000001	4,15867233	0,00027780603589572835	0,10001017413330474	0,000415909541	0,0014396689760053034	-5,3715985150282765E-005	0,043060007403093517
1	1	0	0	0	0	2	30278,93	0,100000001	4,20003891	0,00025656522560450768	0,10001026738002416	0,000420047028	0,0019740405519995136	-7,3654107120851968E-005	0,043594378979087725

File: LLTO_LP30_Li_07_OCV_C01.txt
EC-Lab ASCII FILE
Nb header lines : 48

Open Circuit Voltage

Run on channel : 1 (SN 6985)
Grouped channel(s) : 1
User :
CE vs. WE compliance from -10 V to 10 V
Electrode connection : standard
Ewe ctrl range : min = 0,00 V, max = 5,00 V
Acquisition started on : 04.29.2015 11:07:38
Saved on :
	File : LLTO_LP30_Li_07_OCV_C01.mpr
	Directory : C:\Hupfer\Studenten Batterietests\LLTO_LP30_Li CV\
	Host : 192.168.0.2
Device : VMP3 (SN 0324)
Address : 192.168.0.1
EC-Lab for windows v10.33 (software)
Internet server v10.33 (firmware)
Command interpretor v10.32 (firmware)
Electrode material : LATP vs Li
Initial state : charged
Electrolyte : DME:Diox 1:2, 1M LiTFSi
Comments : LATP als Elektrode, normaler Seperator und Elektrolyt, Goldschicht teilweise vorhanden, elektrolytschonend, Probe2
Mass of active material : 0,001 mg
 at x = 0,000
Molecular weight of active material (at x = 0) : 0,001 g/mol
Atomic weight of intercalated ion : 0,001 g/mol
Acquisition started at : xo = 0,000
Number of e- transfered per intercalated ion : 1
for DX = 1, DQ = 26,801 mA.h
Battery capacity : 0,000 A.h
Reference electrode : Li+/Li (-3,020 V)
Electrode surface area : 0,001 cm²
Characteristic mass : 0,001 g
Create one data file per loop
tR (h:m:s)          3:00:0,0000
dER/dt (mV/h)       0,0
dER (mV)            0,00
dtR (s)             60,0000
E range min (V)     0,000
E range max (V)     5,000

Number of loops : 1
Loop 0 from point number 0 to 180

mode	error	time/s	Ewe/V
3	0	45402,1418	4,18850565
3	0	45462,1418	3,82081413
3	0	45522,1418	3,66351032
3	0	45582,1418	3,55274081
3	0	45642,1418	3,46715736
3	0	45702,1418	3,39778566
3	0	45762,1418	3,33939338
3	0	45822,1418	3,28936458
3	0	45882,1418	3,24519825
3	0	45942,1418	3,20551896
3	0	46002,1418	3,16950583
3	0	46062,1418	3,13677716
3	0	46122,1418	3,10668373
3	0	46182,1418	3,07924438
3	0	46242,1418	3,05373359
3	0	46302,1418	3,03020859
3	0	46362,1418	3,00845957
3	0	46422,1418	2,98816156
3	0	46482,1418	2,96939135
3	0	46542,1418	2,95191956
3	0	46602,1418	2,93528771
3	0	46662,1418	2,91972542
3	0	46722,1418	2,90517521
3	0	46782,1418	2,89144588
3	0	46842,1418	2,87830853
3	0	46902,1418	2,86576319
3	0	46962,1418	2,85405803
3	0	47022,1418	2,84281111
3	0	47082,1418	2,83207989
3	0	47142,1418	2,8218832
3	0	47202,1418	2,8121829
3	0	47262,1418	2,80267358
3	0	47322,1418	2,79375648
3	0	47382,1418	2,78514457
3	0	47442,1418	2,7770102
3	0	47502,1418	2,76910496
3	0	47562,1418	2,76139045
3	0	47622,1418	2,75409627
3	0	47682,1418	2,74701214
3	0	47742,1418	2,74013782
3	0	47802,1418	2,73372197
3	0	47862,1418	2,72724891
3	0	47922,1418	2,72106218
3	0	47982,1418	2,71512365
3	0	48042,1418	2,70941424
3	0	48102,1418	2,70381927
3	0	48162,1418	2,69833922
3	0	48222,1418	2,69308805
3	0	48282,1418	2,68800879
3	0	48342,1418	2,68296766
3	0	48402,1418	2,67819405
3	0	48462,1418	2,67349672
3	0	48522,1418	2,66887569
3	0	48582,1418	2,66454124
3	0	48642,1418	2,66018748
3	0	48702,1418	2,65608215
3	0	48762,1418	2,65188122
3	0	48822,1418	2,64783311
3	0	48882,1418	2,64405227
3	0	48942,1418	2,6402142
3	0	49002,1418	2,63641429
3	0	49062,1418	2,6327672
3	0	49122,1418	2,62923455
3	0	49182,1418	2,62562561
3	0	49242,1418	2,62232232
3	0	49302,1418	2,61896157
3	0	49362,1418	2,61575365
3	0	49422,1418	2,61237383
3	0	49482,1418	2,60931873
3	0	49542,1418	2,60630178
3	0	49602,1418	2,60326552
3	0	49662,1418	2,60028672
3	0	49722,1418	2,59734607
3	0	49782,1418	2,59440565
3	0	49842,1418	2,59157944
3	0	49902,1418	2,58890629
3	0	49962,1418	2,58615661
3	0	50022,1418	2,58350229
3	0	50082,1418	2,58084822
3	0	50142,1418	2,57828951
3	0	50202,1418	2,57571173
3	0	50262,1418	2,57332468
3	0	50322,1418	2,57088065
3	0	50382,1418	2,56843638
3	0	50442,1418	2,56616426
3	0	50502,1418	2,56381559
3	0	50562,1418	2,56140947
3	0	50622,1418	2,55921364
3	0	50682,1418	2,55697942
3	0	50742,1418	2,55480266
3	0	50802,1418	2,55275965
3	0	50862,1418	2,55056357
3	0	50922,1418	2,54853964
3	0	50982,1418	2,546592
3	0	51042,1418	2,54431963
3	0	51102,1418	2,54248643
3	0	51162,1418	2,54050064
3	0	51222,1418	2,53859115
3	0	51282,1418	2,53675795
3	0	51342,1418	2,53473401
3	0	51402,1418	2,53291988
3	0	51462,1418	2,53108692
3	0	51522,1418	2,52927279
3	0	51582,1418	2,52755427
3	0	51642,1418	2,52579761
3	0	51702,1418	2,52402163
3	0	51762,1418	2,52228403
3	0	51822,1418	2,52060366
3	0	51882,1418	2,51899981
3	0	51942,1418	2,51733851
3	0	52002,1418	2,51573443
3	0	52062,1418	2,51414967
3	0	52122,1418	2,51248837
3	0	52182,1418	2,51092267
3	0	52242,1418	2,50929952
3	0	52302,1418	2,5079248
3	0	52362,1418	2,50628257
3	0	52422,1418	2,50477409
3	0	52482,1418	2,50338006
3	0	52542,1418	2,50175714
3	0	52602,1418	2,50038218
3	0	52662,1418	2,49887371
3	0	52722,1418	2,49759436
3	0	52782,1418	2,49616218
3	0	52842,1418	2,49484468
3	0	52902,1418	2,49331713
3	0	52962,1418	2,49196148
3	0	53022,1418	2,49054837
3	0	53082,1418	2,48924994
3	0	53142,1418	2,48793244
3	0	53202,1418	2,48655748
3	0	53262,1418	2,48527813
3	0	53322,1418	2,48407507
3	0	53382,1418	2,48273849
3	0	53442,1418	2,48157382
3	0	53502,1418	2,48033261
3	0	53562,1418	2,47907233
3	0	53622,1418	2,4778502
3	0	53682,1418	2,4767046
3	0	53742,1418	2,47542524
3	0	53802,1418	2,47420311
3	0	53862,1418	2,47311473
3	0	53922,1418	2,47193074
3	0	53982,1418	2,47070885
3	0	54042,1418	2,46956301
3	0	54102,1418	2,46855092
3	0	54162,1418	2,46740532
3	0	54222,1418	2,46627879
3	0	54282,1418	2,46522856
3	0	54342,1418	2,4641211
3	0	54402,1418	2,46299434
3	0	54462,1418	2,4619441
3	0	54522,1418	2,46083665
3	0	54582,1418	2,45982456
3	0	54642,1418	2,45885086
3	0	54702,1418	2,45770502
3	0	54762,1418	2,45671225
3	0	54822,1418	2,45562387
3	0	54882,1418	2,45474529
3	0	54942,1418	2,45380974
3	0	55002,1418	2,45285511
3	0	55062,1418	2,45176649
3	0	55122,1418	2,45081186
3	0	55182,1418	2,44989538
3	0	55242,1418	2,4488833
3	0	55302,1418	2,44787121
3	0	55362,1418	2,44705009
3	0	55422,1418	2,44619083
3	0	55482,1418	2,44523621
3	0	55542,1418	2,44428134
3	0	55602,1418	2,44334579
3	0	55662,1418	2,4424293
3	0	55722,1418	2,44155073
3	0	55782,1418	2,44069147
3	0	55842,1418	2,43975592
3	0	55902,1418	2,43904948
3	0	55962,1418	2,4380374
3	0	56022,1418	2,43731165
3	0	56082,1418	2,43639517
3	0	56142,1418	2,43547869
3	0	56202,1418	2,4346385

File: LLTO_LP30_Li_07_OCV_C01_loop0.txt
EC-Lab ASCII FILE
Nb header lines : 3
mode	error	time/s	Ewe/V
3	0	45402,14	4,18850565
3	0	45462,14	3,82081413
3	0	45522,14	3,66351032
3	0	45582,14	3,55274081
3	0	45642,14	3,46715736
3	0	45702,14	3,39778566
3	0	45762,14	3,33939338
3	0	45822,14	3,28936458
3	0	45882,14	3,24519825
3	0	45942,14	3,20551896
3	0	46002,14	3,16950583
3	0	46062,14	3,13677716
3	0	46122,14	3,10668373
3	0	46182,14	3,07924438
3	0	46242,14	3,05373359
3	0	46302,14	3,03020859
3	0	46362,14	3,00845957
3	0	46422,14	2,98816156
3	0	46482,14	2,96939135
3	0	46542,14	2,95191956
3	0	46602,14	2,93528771
3	0	46662,14	2,91972542
3	0	46722,14	2,90517521
3	0	46782,14	2,89144588
3	0	46842,14	2,87830853
3	0	46902,14	2,86576319
3	0	46962,14	2,85405803
3	0	47022,14	2,84281111
3	0	47082,14	2,83207989
3	0	47142,14	2,8218832
3	0	47202,14	2,8121829
3	0	47262,14	2,80267358
3	0	47322,14	2,79375648
3	0	47382,14	2,78514457
3	0	47442,14	2,7770102
3	0	47502,14	2,76910496
3	0	47562,14	2,76139045
3	0	47622,14	2,75409627
3	0	47682,14	2,74701214
3	0	47742,14	2,74013782
3	0	47802,14	2,73372197
3	0	47862,14	2,72724891
3	0	47922,14	2,72106218
3	0	47982,14	2,71512365
3	0	48042,14	2,70941424
3	0	48102,14	2,70381927
3	0	48162,14	2,69833922
3	0	48222,14	2,69308805
3	0	48282,14	2,68800879
3	0	48342,14	2,68296766
3	0	48402,14	2,67819405
3	0	48462,14	2,67349672
3	0	48522,14	2,66887569
3	0	48582,14	2,66454124
3	0	48642,14	2,66018748
3	0	48702,14	2,65608215
3	0	48762,14	2,65188122
3	0	48822,14	2,64783311
3	0	48882,14	2,64405227
3	0	48942,14	2,6402142
3	0	49002,14	2,63641429
3	0	49062,14	2,6327672
3	0	49122,14	2,62923455
3	0	49182,14	2,62562561
3	0	49242,14	2,62232232
3	0	49302,14	2,61896157
3	0	49362,14	2,61575365
3	0	49422,14	2,61237383
3	0	49482,14	2,60931873
3	0	49542,14	2,60630178
3	0	49602,14	2,60326552
3	0	49662,14	2,60028672
3	0	49722,14	2,59734607
3	0	49782,14	2,59440565
3	0	49842,14	2,59157944
3	0	49902,14	2,58890629
3	0	49962,14	2,58615661
3	0	50022,14	2,58350229
3	0	50082,14	2,58084822
3	0	50142,14	2,57828951
3	0	50202,14	2,57571173
3	0	50262,14	2,57332468
3	0	50322,14	2,57088065
3	0	50382,14	2,56843638
3	0	50442,14	2,56616426
3	0	50502,14	2,56381559
3	0	50562,14	2,56140947
3	0	50622,14	2,55921364
3	0	50682,14	2,55697942
3	0	50742,14	2,55480266
3	0	50802,14	2,55275965
3	0	50862,14	2,55056357
3	0	50922,14	2,54853964
3	0	50982,14	2,546592
3	0	51042,14	2,54431963
3	0	51102,14	2,54248643
3	0	51162,14	2,54050064
3	0	51222,14	2,53859115
3	0	51282,14	2,53675795
3	0	51342,14	2,53473401
3	0	51402,14	2,53291988
3	0	51462,14	2,53108692
3	0	51522,14	2,52927279
3	0	51582,14	2,52755427
3	0	51642,14	2,52579761
3	0	51702,14	2,52402163
3	0	51762,14	2,52228403
3	0	51822,14	2,52060366
3	0	51882,14	2,51899981
3	0	51942,14	2,51733851
3	0	52002,14	2,51573443
3	0	52062,14	2,51414967
3	0	52122,14	2,51248837
3	0	52182,14	2,51092267
3	0	52242,14	2,50929952
3	0	52302,14	2,5079248
3	0	52362,14	2,50628257
3	0	52422,14	2,50477409
3	0	52482,14	2,50338006
3	0	52542,14	2,50175714
3	0	52602,14	2,50038218
3	0	52662,14	2,49887371
3	0	52722,14	2,49759436
3	0	52782,14	2,49616218
3	0	52842,14	2,49484468
3	0	52902,14	2,49331713
3	0	52962,14	2,49196148
3	0	53022,14	2,49054837
3	0	53082,14	2,48924994
3	0	53142,14	2,48793244
3	0	53202,14	2,48655748
3	0	53262,14	2,48527813
3	0	53322,14	2,48407507
3	0	53382,14	2,48273849
3	0	53442,14	2,48157382
3	0	53502,14	2,48033261
3	0	53562,14	2,47907233
3	0	53622,14	2,4778502
3	0	53682,14	2,4767046
3	0	53742,14	2,47542524
3	0	53802,14	2,47420311
3	0	53862,14	2,47311473
3	0	53922,14	2,47193074
3	0	53982,14	2,47070885
3	0	54042,14	2,46956301
3	0	54102,14	2,46855092
3	0	54162,14	2,46740532
3	0	54222,14	2,46627879
3	0	54282,14	2,46522856
3	0	54342,14	2,4641211
3	0	54402,14	2,46299434
3	0	54462,14	2,4619441
3	0	54522,14	2,46083665
3	0	54582,14	2,45982456
3	0	54642,14	2,45885086
3	0	54702,14	2,45770502
3	0	54762,14	2,45671225
3	0	54822,14	2,45562387
3	0	54882,14	2,45474529
3	0	54942,14	2,45380974
3	0	55002,14	2,45285511
3	0	55062,14	2,45176649
3	0	55122,14	2,45081186
3	0	55182,14	2,44989538
3	0	55242,14	2,4488833
3	0	55302,14	2,44787121
3	0	55362,14	2,44705009
3	0	55422,14	2,44619083
3	0	55482,14	2,44523621
3	0	55542,14	2,44428134
3	0	55602,14	2,44334579
3	0	55662,14	2,4424293
3	0	55722,14	2,44155073
3	0	55782,14	2,44069147
3	0	55842,14	2,43975592
3	0	55902,14	2,43904948
3	0	55962,14	2,4380374
3	0	56022,14	2,43731165
3	0	56082,14	2,43639517
3	0	56142,14	2,43547869
3	0	56202,14	2,4346385