Folder: thesis/Experimentelles/Rohdaten/Batterietests/150123_Batterietests/LiCoO2 vs Li 200µm IS + GCPL/ECLab-Export

Note: README.md
# thesis

Zusammenfassung
---------------
Es konnten die Festkörperelektrolytkeramiken LATP, LAGP, LTO und LLTO hergestellt,
mit XRD und MAS-NMR charakterisiert und zu Elektrodensuspensionen weiterverarbeitet
werden. Aus den Daten der MAS-NMR konnten dabei gegenüber der XRD keine Mehrinfor-
mationen gewonnen werden. Die mit den Suspensionen gegossenen und gestanzten Elektro-
denproben wurden mittels REM und EDX untersucht und als Kathode in Testzellen verbaut.
Mit diesen wurden Ladekennlinien erstellt und eine zyklischer Voltametrie durchgeführt. Aus
den Ladekennlinien konnten die Kapazitäten und der Grad der Lithiuminsertation in die
Materialen bestimmt werden. Die zyklische Voltametrie lieferte nicht-reaktive Spannungsbe-
reiche der Materialien.

Für ein noch besseres Verständnis der Lithiumbewegung und -insertation wurde eine in-situ
NMR-Testzelle konzipiert, konstruiert, gebaut und getestet. Für den Test kam dabei eine
Lithium-Schwefel-Zelle zum Einsatz, für welche ein Di?usionskoe?zient sowie ein Spektrum
vor und nach einer 90 minütigen Ladezeit aufgenommen worden ist.

Abstract
--------
The all solid state electrolyte ceramics LATP, LAGP, LTO, and LLTO were successfully
synthesized and characterized by using XRD. MAS-NMR spectroscopy were not able to ge-
nerate additional information. All powders were processed to electrode slurries, casted on
aluminum foils and punched to electrode samples. Those samples were studied by SEM and
EDX and then build into battery test cells. The cells were analyzed by measuring the charge
curves as well as cyclic voltammetry. With the charge curves capacities and the amount of
lithium insertion were calculated. The cyclic voltammetry was able to detect non-reactive
voltage regions.

To be able to better understand lithium movement and insertion a novel in-situ NMR sample
cell was designed, constructed, built and tested. Therefore, a lithium-sulfur-cell was built into
the in-situ sample cell. With this setting a diffusion coeffcient as well as a NMR spectrum
before and after 90 minutes of charging were measured.

File: LiCoO2 vs Li 200µm IS + GCPL_02_PEIS_C03.mpt
EC-Lab ASCII FILE
Nb header lines : 68

Potentio Electrochemical Impedance Spectroscopy

Run on channel : 3 (SN 6987)
Grouped channel(s) : 3
User :
CE vs. WE compliance from -10 V to 10 V
Electrode connection : standard
Ewe ctrl range : min = 0,00 V, max = 5,00 V
Acquisition started on : 01.23.2015 14:58:37
Saved on :
	File : LiCoO2 vs Li 200µm IS + GCPL_02_PEIS_C03.mpr
	Directory : C:\Hupfer\Studenten Batterietests\LiCoO2 vs Li 200µm IS + GCPL\
	Host : 192.168.0.2
Device : VMP3 (SN 0324)
Address : 192.168.0.1
EC-Lab for windows v10.33 (software)
Internet server v10.33 (firmware)
Command interpretor v10.32 (firmware)
Electrode material : LiCoO2 vs Li
Initial state :
Electrolyte : LP30
Comments : 200µm
Mass of active material : 0,001 mg
 at x = 0,000
Molecular weight of active material (at x = 0) : 0,001 g/mol
Atomic weight of intercalated ion : 0,001 g/mol
Acquisition started at : xo = 0,000
Number of e- transfered per intercalated ion : 1
for DX = 1, DQ = 26,801 mA.h
Battery capacity : 0,000 A.h
Electrode surface area : 0,001 cm²
Characteristic mass : 0,001 g
Multi Sine          0
E (V)               0,0000
vs.                 Eoc
tE (h:m:s)          0:00:0,0000
record              0
dI                  0,000
unit dI             mA
dt (s)              0,000
fi                  1,000
unit fi             MHz
ff                  1,000
unit ff             Hz
Sel Nd              1
Nd                  6
Nt                  51
Log                 1
Va (mV)             10,0
pw                  0,10
Na                  1
E range min (V)     0,000
E range max (V)     5,000
I Range             Auto
Bandwidth           5
corr                0
nc cycles           0
goto Ns'            0
nr cycles           0
inc. cycle          0

Number of loops : 1
Loop 0 from point number 0 to 36

freq/Hz	Re(Z)/Ohm	-Im(Z)/Ohm	|Z|/Ohm	Phase(Z)/deg	time/s	<Ewe>/V	<I>/mA	Cs/µF	Cp/µF	cycle number	I Range	|Ewe|/V	|I|/A	Re(Y)/Ohm-1	Im(Y)/Ohm-1	|Y|/Ohm-1	Phase(Y)/deg
1000024,25	0,374453813	-2,22424698	2,25554657	80,4438171	3602,2921	2,87533188	0,108903714	-0,0715527907	-0,0695807338	1	9	0,000217265158	9,63248385E-005	0,0736028478	-0,437199235	0,443351507	-80,4438171
681286,5	7,50111294	-1,05638146	7,57513285	8,01624489	3604,5741	2,87598777	0,00732644787	-0,221141145	-0,00430061528	1	10	0,000985177583	0,000130054163	0,130720958	-0,0184094291	0,132010892	-8,01624489
464160,125	7,68862438	-0,3587358	7,69698858	2,67136884	3605,7041	2,87614799	0,0101049216	-0,955823243	-0,00207627728	1	10	0,0032419411	0,000421196048	0,129779756	-0,00605526334	0,129920945	-2,67136884
316223,094	7,84214926	0,44176662	7,85458231	-3,22419763	3606,8341	2,87614059	0,029429242	1,13928831	0,00360390451	1	10	0,00856332388	0,00109023286	0,127112702	0,00716055557	0,127314225	3,22419763
215441,859	7,98414803	1,19975471	8,07378674	-8,54573154	3607,1481	2,87614346	0,0276745204	0,615740299	0,0135965263	1	10	0,0100916708	0,00124993036	0,122482494	0,0184050892	0,123857617	8,54573154
146777,328	8,24068165	2,02469325	8,48576546	-13,803853	3607,4621	2,87619328	0,0198053159	0,535552323	0,0304886606	1	10	0,0101493122	0,00119603972	0,114440858	0,02811753	0,11784441	13,803853
100024,406	8,5355978	3,02951074	9,05728245	-19,5411263	3607,7761	2,87590504	-0,0130047956	0,525220513	0,0587612242	1	10	0,0101699987	0,00112285325	0,104049057	0,036929775	0,110408396	19,5411263
68127,4297	9,16247559	4,19740248	10,0781517	-24,6128902	3607,9881	2,87620616	0,0131481905	0,556567073	0,0965421498	1	10	0,0109232729	0,0010838568	0,0902092457	0,0413255692	0,0992245451	24,6128902
46411,125	9,96986198	5,68202543	11,4753456	-29,6796894	3608,2001	2,87620664	0,0120591791	0,603524446	0,147968635	1	10	0,0107393907	0,000935866439	0,0757107586	0,0431490913	0,0871433467	29,6796894
31628,4121	11,1475592	7,49645042	13,4337206	-33,9198303	3608,4121	2,8762095	0,0125123039	0,671254277	0,209028646	1	10	0,0102792596	0,000765183358	0,0617713593	0,0415396728	0,0744395405	33,9198303
21545,4082	12,9165602	9,67826557	16,1402092	-36,8438988	3608,5222	2,87621355	0,0105785681	0,763251841	0,274438232	1	10	0,0108927386	0,000674882147	0,0495825149	0,0371517427	0,061957065	36,8438988
14672,8496	15,4437647	12,1591501	19,6559105	-38,2139854	3608,6332	2,87621665	0,0111230668	0,892077208	0,341367781	1	10	0,0108101396	0,000549968914	0,0399730131	0,0314714611	0,0508752838	38,2139854
10015,2705	18,9332237	14,5463228	23,8759804	-37,534935	3608,7665	2,87626266	0,0167974755	1,0924567	0,405497551	1	10	0,0106127467	0,000444494712	0,0332125425	0,0255170688	0,0418830961	37,534935
6856,00244	23,5285397	16,6931019	28,8487759	-35,3550568	3608,9506	2,87626362	0,0138847446	1,39063168	0,465619773	1	10	0,0104709119	0,000362958614	0,0282709375	0,0200577527	0,034663517	35,3550568
4642,42725	28,8325462	17,9468422	33,9618149	-31,9002342	3609,1868	2,87626171	0,0132917566	1,91023588	0,533434749	1	10	0,00972434785	0,000286331808	0,0249977671	0,015559881	0,0294448342	31,9002342
3160,05566	34,6045456	18,3103447	39,1502647	-27,884716	3609,6679	2,8762567	0,00246464787	2,75060916	0,601661921	1	11	0,0104930261	0,000268019299	0,0225768685	0,0119461268	0,0255426113	27,884716
2152,93286	39,9836731	17,6571674	43,7089195	-23,8267059	3609,9043	2,87625909	0,00283532473	4,18666887	0,683235645	1	11	0,010416978	0,000238326131	0,0209287144	0,00924231764	0,0228786264	23,8267059
1468,58972	44,8365479	16,3361015	47,7198524	-20,019104	3610,1403	2,87625504	0,00170576177	6,63393545	0,777445436	1	11	0,0103614973	0,00021713179	0,0196894687	0,00717381621	0,020955639	20,019104
999,040405	48,9508057	14,6755247	51,1033516	-16,6888084	3610,3763	2,87625742	0,00171023759	10,85534	0,895224512	1	11	0,0103194611	0,000201933159	0,018743949	0,00561946351	0,0195681881	16,6888084
681,089661	52,462841	12,9337273	54,0336113	-13,8490353	3610,6118	2,87625313	0,00269264821	18,067255	1,03516972	1	11	0,0102940658	0,000190512263	0,0179689974	0,00442991871	0,0185070001	13,8490353
464,553894	55,3012505	11,2711668	56,4381752	-11,5198965	3610,8484	2,8762579	0,00218983251	30,3959103	1,21229124	1	11	0,0102780294	0,000182111296	0,017361572	0,00353853055	0,0177185033	11,5198965
316,315765	57,6067314	9,62810326	58,4057846	-9,48843002	3611,0832	2,87625623	0,00102502026	52,2586937	1,42013061	1	11	0,0102686491	0,000175815614	0,01688735	0,00282246782	0,0171215925	9,48843002
215,344498	59,4911041	8,26416588	60,0623665	-7,90859175	3611,3198	2,87625742	0,000476790854	89,4308395	1,69309175	1	11	0,0102645326	0,000170897911	0,0164910052	0,00229083654	0,0166493598	7,90859175
146,737289	60,9099121	7,18743229	61,3325081	-6,7298398	3611,5535	2,87625599	0,000879546336	150,905777	2,07239223	1	11	0,0102637848	0,000167346574	0,0161922257	0,00191069907	0,0163045675	6,7298398
99,9040375	62,0808105	6,42143869	62,4120331	-5,90548897	3611,7893	2,87625265	0,00264536869	248,087418	2,62623	1	11	0,010258263	0,000164363548	0,0159375202	0,00164852559	0,0160225518	5,90548897
68,1888962	63,1617508	6,12984943	63,4585037	-5,54319715	3612,0310	2,87625813	0,00109840895	380,764679	3,55284786	1	11	0,010266629	0,000161784919	0,0156846382	0,00152219459	0,01575833	5,54319715
46,3802681	64,0710449	6,18624878	64,3690033	-5,51498175	3612,2606	2,87625885	0,00244646124	554,70166	5,12342834	1	11	0,0102662519	0,000159490606	0,0154635161	0,00149304827	0,0155354282	5,51498175
31,5869217	64,8231659	6,67922354	65,1663666	-5,88285923	3612,4851	2,87625718	0,00187044288	754,374268	7,92486382	1	11	0,0102535821	0,000157344693	0,0152645241	0,00157281989	0,0153453397	5,88285923
21,5220375	65,6631622	7,79263067	66,1239471	-6,76796961	3612,7066	2,87625861	0,00310538057	948,970398	13,1796331	1	11	0,0102550099	0,000155087691	0,0150177293	0,00178224151	0,015123114	6,76796961
14,6851501	66,9172134	9,36455917	67,5692825	-7,96637726	3612,9478	2,87625933	0,00169801922	1157,32263	22,2295399	1	11	0,0102609117	0,000151857646	0,0146568017	0,00205110898	0,0147996247	7,96637726
9,9904108	68,0258179	11,9905043	69,0744858	-9,99650097	3613,1844	2,87625718	0,000737335649	1328,6156	40,0349159	1	11	0,0102622397	0,000148567735	0,0142573388	0,00251305569	0,0144771254	9,99650097
6,81718969	69,5339813	15,8143129	71,3096542	-12,8129911	3613,3615	2,87625432	-0,000890380412	1476,26526	72,6053162	1	11	0,0102499221	0,000143738216	0,013674153	0,00310995197	0,0140233468	12,8129911
4,63925123	72,1257706	19,9062614	74,8223648	-15,4291716	3613,6152	2,8762579	0,00460655289	1723,38599	121,982941	1	11	0,0102653215	0,000137195893	0,0128833139	0,00355571415	0,0133649874	15,4291716
3,16039586	73,7473602	26,9217072	78,5076523	-20,0547714	3614,3407	2,87626219	0,000800254929	1870,57898	219,966858	1	12	0,0102634216	0,000130731481	0,0119652702	0,00436796015	0,0127376122	20,0547714
2,1522038	78,3265076	34,0986176	85,4269104	-23,5253906	3614,8673	2,87626624	-0,00214634161	2168,70239	345,528687	1	12	0,0102629242	0,000120136901	0,0107329562	0,00467247888	0,0117059136	23,5253906
1,46630979	79,4411926	48,5178833	93,0853806	-31,4140644	3615,6323	2,87626672	-0,00162133412	2237,13696	607,761658	1	12	0,0102576958	0,000110196634	0,00916817319	0,00559936604	0,0107428255	31,4140644
0,998529792	80,5535126	63,5402756	102,597443	-38,2662315	3616,7488	2,87626696	0,00108113361	2508,47632	962,133057	1	12	0,0102590565	9,99932963E-005	0,00765264221	0,00603637286	0,00974683184	38,2662315