Folder: thesis/Experimentelles/Rohdaten/Batteriemessungen/AlteZelle/Studenten_Batterietests/Test_BigCell/ECLab-Export

Note: README.md
# thesis

Zusammenfassung
---------------
Es konnten die Festkörperelektrolytkeramiken LATP, LAGP, LTO und LLTO hergestellt,
mit XRD und MAS-NMR charakterisiert und zu Elektrodensuspensionen weiterverarbeitet
werden. Aus den Daten der MAS-NMR konnten dabei gegenüber der XRD keine Mehrinfor-
mationen gewonnen werden. Die mit den Suspensionen gegossenen und gestanzten Elektro-
denproben wurden mittels REM und EDX untersucht und als Kathode in Testzellen verbaut.
Mit diesen wurden Ladekennlinien erstellt und eine zyklischer Voltametrie durchgeführt. Aus
den Ladekennlinien konnten die Kapazitäten und der Grad der Lithiuminsertation in die
Materialen bestimmt werden. Die zyklische Voltametrie lieferte nicht-reaktive Spannungsbe-
reiche der Materialien.

Für ein noch besseres Verständnis der Lithiumbewegung und -insertation wurde eine in-situ
NMR-Testzelle konzipiert, konstruiert, gebaut und getestet. Für den Test kam dabei eine
Lithium-Schwefel-Zelle zum Einsatz, für welche ein Di?usionskoe?zient sowie ein Spektrum
vor und nach einer 90 minütigen Ladezeit aufgenommen worden ist.

Abstract
--------
The all solid state electrolyte ceramics LATP, LAGP, LTO, and LLTO were successfully
synthesized and characterized by using XRD. MAS-NMR spectroscopy were not able to ge-
nerate additional information. All powders were processed to electrode slurries, casted on
aluminum foils and punched to electrode samples. Those samples were studied by SEM and
EDX and then build into battery test cells. The cells were analyzed by measuring the charge
curves as well as cyclic voltammetry. With the charge curves capacities and the amount of
lithium insertion were calculated. The cyclic voltammetry was able to detect non-reactive
voltage regions.

To be able to better understand lithium movement and insertion a novel in-situ NMR sample
cell was designed, constructed, built and tested. Therefore, a lithium-sulfur-cell was built into
the in-situ sample cell. With this setting a diffusion coeffcient as well as a NMR spectrum
before and after 90 minutes of charging were measured.

File: BigCellTest2_C02.mpt
EC-Lab ASCII FILE
Nb header lines : 66

Potentio Electrochemical Impedance Spectroscopy

Run on channel : 2 (SN 6986)
Grouped channel(s) : 2
User :
CE vs. WE compliance from -10 V to 10 V
Electrode connection : standard
Ewe ctrl range : min = -10,00 V, max = 10,00 V
Acquisition started on : 02.11.2015 10:59:11
Saved on :
	File : BigCellTest2_C02.mpr
	Directory : C:\Hupfer\Studenten Batterietests\Test_BigCell\
	Host : 192.168.0.2
Device : VMP3 (SN 0324)
Address : 192.168.0.1
EC-Lab for windows v10.33 (software)
Internet server v10.33 (firmware)
Command interpretor v10.32 (firmware)
Electrode material : S vs Li
Initial state : charged
Electrolyte : DME:Diox 1:2, 1M LiTFSi
Comments :
Mass of active material : 0,001 mg
 at x = 0,000
Molecular weight of active material (at x = 0) : 0,001 g/mol
Atomic weight of intercalated ion : 0,001 g/mol
Acquisition started at : xo = 0,000
Number of e- transfered per intercalated ion : 1
for DX = 1, DQ = 26,801 mA.h
Battery capacity : 0,000 A.h
Reference electrode : Li+/Li (-3,020 V)
Electrode surface area : 0,001 cm²
Characteristic mass : 0,001 g
Multi Sine          0
E (V)               0,0000
vs.                 Eoc
tE (h:m:s)          0:00:0,0000
record              0
dI                  0,000
unit dI             mA
dt (s)              0,000
fi                  1,000
unit fi             MHz
ff                  1,000
unit ff             Hz
Sel Nd              1
Nd                  6
Nt                  51
Log                 1
Va (mV)             10,0
pw                  0,10
Na                  2
E range min (V)     -10,000
E range max (V)     10,000
I Range             Auto
Bandwidth           5
corr                0
nc cycles           0
goto Ns'            0
nr cycles           0
inc. cycle          0

freq/Hz	Re(Z)/Ohm	-Im(Z)/Ohm	|Z|/Ohm	Phase(Z)/deg	time/s	<Ewe>/V	<I>/mA	Cs/µF	Cp/µF	cycle number	I Range	|Ewe|/V	|I|/A	Re(Y)/Ohm-1	Im(Y)/Ohm-1	|Y|/Ohm-1	Phase(Y)/deg
1000024,25	5427,19434	3044,7627	6222,94287	-29,2932816	3,2966	-0,925046861	-0,000493559113	5,22704395E-005	1,25132874E-005	1	13	0,00550073292	8,83943983E-007	0,000140146978	7,86252131E-005	0,000160695679	29,2932816
681286,5	732,283386	8287,40527	8319,69531	-84,9504013	3,6106	-0,923962235	8,93139168E-006	2,81884859E-005	2,79701035E-005	1	13	0,010236036	1,23033783E-006	1,05794834E-005	0,000119730212	0,00012019671	84,9504013
464160,125	-387,64035	14807,2246	14812,2979	-91,4996109	4,0266	-0,923992097	7,86715555E-006	2,31568065E-005	2,31409467E-005	1	13	0,0100418776	6,77941898E-007	-1,766786E-006	6,74883486E-005	6,75114716E-005	91,4996109
316223,094	-1258,25366	23030,1758	23064,5234	-93,127243	4,3406	-0,924008727	1,05117315E-005	2,18539171E-005	2,17888773E-005	1	13	0,0109108975	4,73059742E-007	-2,36525989E-006	4,32920679E-005	4,33566311E-005	93,127243
215441,859	-2922,03931	35379,2344	35499,6992	-94,7214508	4,6546	-0,924019456	5,81704762E-006	2,08805341E-005	2,07390622E-005	1	13	0,0108417179	3,05403091E-007	-2,31865715E-006	2,8073664E-005	2,81692519E-005	94,7214508
146777,328	4509,50732	63986,5352	64145,2422	-85,9686966	5,1006	-0,924008667	4,46565537E-006	1,69462091E-005	1,68624574E-005	1	14	0,0092474753	1,4416463E-007	1,0959734E-006	1,55510497E-005	1,55896214E-005	85,9686966
100024,406	6530,22705	83521,2422	83776,1406	-85,5293427	5,4146	-0,923854351	2,75174614E-007	1,90509763E-005	1,89352213E-005	1	14	0,0102936812	1,2287127E-007	9,30438432E-007	1,19002543E-005	1,19365732E-005	85,5293427
68127,4297	5136,66016	96647,7969	96784,2031	-86,957695	5,7286	-0,92401123	3,34931701E-006	2,41716443E-005	2,41035577E-005	1	14	0,0103019914	1,06442897E-007	5,48367268E-007	1,03177026E-005	1,03322645E-005	86,957695
46411,125	15051,376	125290,734	126191,57	-83,1497955	6,0426	-0,924003959	-5,02754483E-006	2,73702699E-005	2,69808934E-005	1	14	0,0103178723	8,17635595E-008	9,45181853E-007	7,86788951E-006	7,92445917E-006	83,1497955
31628,4121	8747,87402	235255,859	235418,453	-87,8704681	6,3566	-0,92400378	7,55256337E-007	2,13895819E-005	2,1360047E-005	1	14	0,0102681201	4,36164633E-008	1,57841441E-007	4,24482187E-006	4,24775544E-006	87,8704681
21545,4082	15789,918	316333,469	316727,313	-87,1424255	6,6706	-0,924012542	2,60551974E-006	2,33517949E-005	2,32937546E-005	1	14	0,0101670707	3,21003917E-008	1,57401672E-007	3,15336433E-006	3,15729017E-006	87,1424255
14672,8496	53427,0938	346183,063	350281,563	-81,2266541	6,8826	-0,924000084	-2,18133368E-006	3,13328455E-005	3,0603911E-005	1	14	0,0106834974	3,04997414E-008	4,35438551E-007	2,8214431E-006	2,85484634E-006	81,2266541
10015,2705	-16737,1777	481591,688	481882,438	-91,990448	7,1348	-0,923998475	1,12967928E-006	3,29973045E-005	3,29574978E-005	1	14	0,0108652031	2,25474146E-008	-7,20775049E-008	2,07394282E-006	2,07519497E-006	91,990448
6856,00244	1843,92297	-82,0665894	1845,74829	2,54835391	9,0442	-0,923984706	-0,00421253359	-0,282867312	-0,000559204433	1	12	0,00973275024	5,27306474E-006	0,000541249872	-2,40891477E-005	0,000541785674	-2,54835391
4642,42725	1378,83887	-286,062683	1408,20044	11,7206726	9,4954	-0,923975289	-0,153635576	-0,119843312	-0,00494546676	1	12	0,00919625815	6,53050392E-006	0,00069531973	-0,000144255449	0,000710126187	-11,7206726
3160,05566	646,829895	5,90889072	646,856873	-0,523391187	12,0424	-0,923987389	-0,09274216	8,52352905	0,000711238012	1	12	0,0109471977	1,69236791E-005	0,00154587254	1,41217834E-005	0,00154593703	0,523391187
2152,93286	489,589325	11,9894648	489,736115	-1,40282571	12,7099	-0,923994005	-0,0766555741	6,16580582	0,00369543163	1	12	0,0100904321	2,06038148E-005	0,00204130379	4,99891248E-005	0,0020419159	1,40282571
1468,58972	439,441925	24,9728374	440,15094	-3,25253654	14,1079	-0,923983335	-0,0601870343	4,33962059	0,0139696104	1	12	0,0100849262	2,29124271E-005	0,00226828828	0,000128903484	0,00227194792	3,25253654
999,040405	134,39682	26,2477131	136,935928	-11,0507727	14,8039	-0,923991263	-0,0751422569	6,0693984	0,222994298	1	11	0,0100246286	7,32067056E-005	0,00716727646	0,0013997698	0,00730268518	11,0507727
681,089661	48874,8711	-2079,92871	48919,1094	2,43682027	15,7444	-0,923985004	-0,000656192598	-0,112348527	-0,000203098723	1	13	0,0100097936	2,04619298E-007	2,04234257E-005	-8,69143321E-007	2,04419102E-005	-2,43682027
464,553894	325387,281	73206,9922	333520,844	-12,6795206	16,4409	-0,92399323	-0,000152150591	0,00467984471	0,000225470969	1	14	0,0100313211	3,00770431E-008	2,92519371E-006	6,58122303E-007	2,99831345E-006	12,6795206
316,315765	129958,234	-46748,3242	138110,641	19,7845726	16,8899	-0,923999667	-0,000146260441	-0,0107629979	-0,00123313628	1	14	0,0100280587	7,26088771E-008	6,81317488E-006	-2,45082174E-006	7,2405719E-006	-19,7845726
215,344498	663599,063	-566552,25	872550,938	40,4892693	17,3404	-0,923992693	-0,000317209604	-0,00130450691	-0,000549977238	1	14	0,0100319209	1,14972325E-008	8,71613906E-007	-7,44146348E-007	1,14606485E-006	-40,4892693
146,737289	65,6986465	429,498779	434,494537	-81,3031158	18,0584	-0,923993051	0,000116706877	2,52532744	2,46758962	1	12	0,00986808632	2,2711647E-005	0,000348006812	0,00227506226	0,00230152486	81,3031158
99,9040375	637558,438	236547,266	680026	-20,3558884	18,9999	-0,923992515	-4,75100896E-005	0,00673471391	0,000814899395	1	14	0,0100309895	1,47508912E-008	1,37869733E-006	5,11525059E-007	1,47053197E-006	20,3558884
68,1888962	295,99234	108,109291	315,117584	-20,064394	19,5770	-0,924003839	-0,0679245442	21,5895424	2,54111433	1	12	0,0100450199	3,18770544E-005	0,00298081641	0,00108872389	0,00317341858	20,064394
46,3802681	305,222351	147,075867	338,809662	-25,7277756	20,4698	-0,92399776	-0,0685702041	23,3316498	4,39659739	1	12	0,00998814683	2,94801121E-005	0,00265891687	0,00128123816	0,00295150978	25,7277756
31,5869217	467,18573	43,9724426	469,250549	-5,37695122	20,8997	-0,923991621	-0,0251202602	114,586182	1,00619888	1	12	0,0100380657	2,13916974E-005	0,00212168042	0,000199696762	0,00213105767	5,37695122
21,5220375	18953,8848	-1324643,38	1324779	89,1802292	21,7836	-0,923991978	-4,32277011E-005	-0,00558261666	-0,00558147347	1	14	0,0100463349	7,58340413E-009	1,07996962E-008	-7,54765608E-007	7,54842858E-007	-89,1802292
14,6851501	890,119812	-439,442566	992,684753	26,2750587	22,4432	-0,924067676	-0,113666788	-24,6626453	-4,83304882	1	13	0,0100532295	1,01273135E-005	0,000903286971	-0,000445943093	0,00100736914	-26,2750587
9,9904108	-31,389986	-1181,57959	1181,99646	91,5217667	23,1390	-0,923992634	0,000116036026	-13,482605	-13,4730959	1	12	0,0100392299	8,49345179E-006	-2,24676787E-005	-0,00084572786	0,000846026232	-91,5217667
6,81718969	252,646011	162,80336	300,557709	-32,7974548	23,4784	-0,924004197	-0,0744849369	143,400742	42,0748291	1	12	0,010039527	3,34029937E-005	0,00279676961	0,00180221919	0,00332714804	32,7974548
4,63925123	504,085541	383,499481	633,383057	-37,2632446	23,9633	-0,923995018	-0,0577444471	89,4555817	32,794735	1	12	0,0100408178	1,58526782E-005	0,00125652563	0,000955942844	0,00157882343	37,2632446
3,16039586	733,427429	495,252197	884,98053	-34,0294762	24,6572	-0,92400068	-0,0510918275	101,683907	31,8447342	1	12	0,0100341942	1,13383221E-005	0,000936461031	0,000632352137	0,00112996832	34,0294762
2,1522038	790,771423	775,200867	1107,36438	-44,4303207	25,6625	-0,923999727	-0,0481008217	95,3943176	46,7487373	1	12	0,0100358324	9,06280911E-006	0,00064486661	0,0006321689	0,000903045118	44,4303207
1,46630979	865,083557	783,695801	1167,28259	-42,1740341	27,1240	-0,923997283	-0,0441532992	138,499084	62,4295082	1	12	0,010032868	8,59506326E-006	0,000634901051	0,000575169048	0,000856690574	42,1740341
0,998529792	642,021606	930,280762	1130,31592	-55,3889885	30,3018	-0,923994362	-0,044330284	171,334595	116,057564	1	13	0,0100331996	8,87645638E-006	0,000502516108	0,00072813913	0,000884708425	55,3889885

File: BigCellTest_C02.mpt
EC-Lab ASCII FILE
Nb header lines : 66

Potentio Electrochemical Impedance Spectroscopy

Run on channel : 2 (SN 6986)
Grouped channel(s) : 2
User :
CE vs. WE compliance from -10 V to 10 V
Electrode connection : standard
Ewe ctrl range : min = -10,00 V, max = 10,00 V
Acquisition started on : 02.10.2015 15:13:16
Saved on :
	File : BigCellTest_C02.mpr
	Directory : C:\Hupfer\Studenten Batterietests\Test_BigCell\
	Host : 192.168.0.2
Device : VMP3 (SN 0324)
Address : 192.168.0.1
EC-Lab for windows v10.33 (software)
Internet server v10.33 (firmware)
Command interpretor v10.32 (firmware)
Electrode material : S vs Li
Initial state : charged
Electrolyte : DME:Diox 1:2, 1M LiTFSi
Comments :
Mass of active material : 0,001 mg
 at x = 0,000
Molecular weight of active material (at x = 0) : 0,001 g/mol
Atomic weight of intercalated ion : 0,001 g/mol
Acquisition started at : xo = 0,000
Number of e- transfered per intercalated ion : 1
for DX = 1, DQ = 26,801 mA.h
Battery capacity : 0,000 A.h
Reference electrode : Li+/Li (-3,020 V)
Electrode surface area : 0,001 cm²
Characteristic mass : 0,001 g
Multi Sine          0
E (V)               0,0000
vs.                 Eoc
tE (h:m:s)          0:00:0,0000
record              0
dI                  0,000
unit dI             mA
dt (s)              0,000
fi                  1,000
unit fi             MHz
ff                  1,000
unit ff             Hz
Sel Nd              1
Nd                  6
Nt                  51
Log                 1
Va (mV)             10,0
pw                  0,10
Na                  2
E range min (V)     -10,000
E range max (V)     10,000
I Range             Auto
Bandwidth           5
corr                0
nc cycles           0
goto Ns'            0
nr cycles           0
inc. cycle          0

freq/Hz	Re(Z)/Ohm	-Im(Z)/Ohm	|Z|/Ohm	Phase(Z)/deg	time/s	<Ewe>/V	<I>/mA	Cs/µF	Cp/µF	cycle number	I Range	|Ewe|/V	|I|/A	Re(Y)/Ohm-1	Im(Y)/Ohm-1	|Y|/Ohm-1	Phase(Y)/deg
1000024,25	2963,47485	4693,3999	5550,69238	-57,731144	2,9226	-1,0812825	-0,000353339477	3,39095532E-005	2,42439201E-005	1	13	0,00513055734	9,24309404E-007	9,61849E-005	0,000152332737	0,000180157702	57,731144
681286,5	567,171265	8080,60547	8100,48584	-85,9850388	3,2366	-1,08076608	9,23890366E-006	2,89098898E-005	2,87681614E-005	1	13	0,0101647433	1,25483132E-006	8,64355025E-006	0,000123146412	0,000123449383	85,9850388
464160,125	-503,615021	14456,248	14465,0176	-91,9952164	3,6526	-1,08079767	1,00197376E-005	2,37190197E-005	2,36902688E-005	1	13	0,010216455	7,06287096E-007	-2,40691429E-006	6,9090398E-005	6,91323075E-005	91,9952164
316223,094	-1391,854	22827,8672	22870,2598	-93,4891052	3,9666	-1,08081925	9,95448409E-006	2,2047594E-005	2,1965936E-005	1	13	0,0109003941	4,76618709E-007	-2,66104303E-006	4,36438568E-005	4,37249073E-005	93,4891052
215441,859	-3439,80103	35838,9727	36003,668	-95,4824142	4,2806	-1,08084226	1,10969249E-005	2,06126806E-005	2,04245316E-005	1	13	0,0108841974	3,02308024E-007	-2,65362496E-006	2,76478931E-005	2,77749477E-005	95,4824142
146777,328	6163,37939	72912,5547	73172,5859	-85,1682129	4,7266	-1,08080828	1,89936327E-006	1,48716399E-005	1,47661294E-005	1	14	0,00931796711	1,27342318E-007	1,15112334E-006	1,36177541E-005	1,36663202E-005	85,1682129
100024,406	7226,06006	93883,4063	94161,0859	-85,5987091	5,0406	-1,08097732	3,89969017E-007	1,69482664E-005	1,68484548E-005	1	14	0,0104218628	1,10681206E-007	8,15002238E-007	1,05887802E-005	1,06200987E-005	85,5987091
68127,4297	9684,05762	133664,281	134014,625	-85,8561249	5,3546	-1,08080709	2,42659576E-006	1,74776396E-005	1,73863773E-005	1	14	0,010425901	7,77967415E-008	5,39204052E-007	7,44236468E-006	7,46187197E-006	85,8561249
46411,125	4185,2251	181336,578	181384,875	-88,6778564	5,6686	-1,08080781	1,30056071E-006	1,89109196E-005	1,89008497E-005	1	14	0,0103298742	5,69500287E-008	1,2720858E-007	5,51167113E-006	5,51313906E-006	88,6778564
31628,4121	13118,9658	280528,156	280834,75	-87,3225021	5,9826	-1,08081543	1,1250022E-006	1,79376802E-005	1,78985356E-005	1	14	0,0102903983	3,66421844E-008	1,66340342E-007	3,55692555E-006	3,56081296E-006	87,3225021
21545,4082	14633,8174	405866,344	406130,063	-87,935051	6,2966	-1,08080566	1,06331413E-006	1,82004587E-005	1,81768301E-005	1	14	0,0100600813	2,47705891E-008	8,87212295E-008	2,46066656E-006	2,46226546E-006	87,935051
14672,8496	9020,83398	583431,688	583501,438	-89,1141815	6,5086	-1,08081603	2,18618015E-006	1,85915524E-005	1,85871068E-005	1	14	0,0105430093	1,80685227E-008	2,6494936E-008	1,71358693E-006	1,71379179E-006	89,1141815
10015,2705	3281,92236	816868,313	816874,875	-89,7698059	6,7608	-1,08078456	1,17494847E-006	1,94538425E-005	1,94535296E-005	1	14	0,0107126525	1,31141897E-008	4,91829821E-009	1,22416782E-006	1,22417771E-006	89,7698059
6856,00244	-9906,49805	1147589,38	1147632,13	-90,4945908	7,1102	-1,08078539	3,1390789E-006	2,02284518E-005	2,02269439E-005	1	14	0,0107007548	9,32420274E-009	-7,52168727E-009	8,71326904E-007	8,71359362E-007	90,4945908
4642,42725	123592,063	1641273,25	1645920,13	-85,6936111	7,5614	-1,08078349	1,98378439E-006	2,08878701E-005	2,07700923E-005	1	14	0,00997287966	6,05915185E-009	4,56218494E-008	6,05847617E-007	6,07562924E-007	85,6936111
3160,05566	-48195,5898	1270758	1271671,63	-92,1719971	8,0124	-1,08078527	2,23118764E-006	3,9633509E-005	3,95765819E-005	1	14	0,0102726342	8,07805556E-009	-2,98028375E-008	7,85801546E-007	7,86366513E-007	92,1719971
2152,93286	559992	3023554,75	3074975,5	-79,5071564	8,4639	-1,08078325	1,46642731E-006	2,44496023E-005	2,36387314E-005	1	14	0,0104125766	3,38623085E-009	5,92241172E-008	3,19767622E-007	3,25205832E-007	79,5071564
1468,58972	-530686,938	5352446,5	5378690,5	-95,6622849	8,9149	-1,08078754	2,18282503E-006	2,02473093E-005	2,00502091E-005	1	14	0,0104773287	1,94793293E-009	-1,83436342E-008	1,85011714E-007	1,85918864E-007	95,6622849
999,040405	433703,813	12021813	12029634	-87,9338684	9,3659	-1,08078718	1,82285567E-006	1,32515643E-005	1,32343384E-005	1	14	0,0105011333	8,72938721E-010	2,99701419E-009	8,30740063E-008	8,31280502E-008	87,9338684
681,089661	-3835131,25	11346581	11977192	-108,675194	9,8164	-1,08079028	1,54749728E-006	2,05944798E-005	1,84829314E-005	1	14	0,0105092153	8,7743568E-010	-2,67343854E-008	7,90960897E-008	8,34920257E-008	108,675194
464,553894	-3367618,25	11617025	12095293	-106,166161	10,2679	-1,08078778	1,27977978E-006	2,94909751E-005	2,72048401E-005	1	14	0,0105214491	8,69879668E-010	-2,30191954E-008	7,94076129E-008	8,26767916E-008	106,166161
316,315765	5019148,5	-11523823	12569421	66,4646835	10,7169	-1,08079314	1,45198374E-006	-4,36619084E-005	-3,66999375E-005	1	14	0,0105177406	8,36772096E-010	3,17687103E-008	-7,29400469E-008	7,95581627E-008	-66,4646835
215,344498	1140157,5	24388860	24415496	-87,3234253	11,1674	-1,08078909	1,69323698E-006	3,03036431E-005	3,02375593E-005	1	14	0,0105188312	4,30826042E-010	1,91263982E-009	4,09129122E-008	4,09575946E-008	87,3234253
146,737289	-9689442	27336482	29002906	-109,516922	11,6144	-1,08078706	2,38960024E-006	3,96768337E-005	3,52483839E-005	1	14	0,0105233612	3,62838176E-010	-1,15190266E-008	3,2498221E-008	3,4479303E-008	109,516922
99,9040375	9879912	21428908	23596838	-65,2476807	12,0659	-1,08078182	2,1110734E-006	7,43424825E-005	6,13097436E-005	1	14	0,0105230324	4,45950943E-010	1,77437549E-008	3,848508E-008	4,23785593E-008	65,2476807
68,1888962	-5006006,5	756659,563	5062868	-171,404785	12,5280	-1,0807879	2,26035377E-006	0,00308465026	6,88991349E-005	1	14	0,0105251204	2,07888506E-009	-1,95298185E-007	2,95193896E-008	1,97516513E-007	171,404785
46,3802681	835719,125	569080,5	1011078,19	-34,2527924	12,9668	-1,0807904	2,76615651E-006	0,00602994254	0,00191025378	1	14	0,0105259167	1,04105862E-008	8,1750585E-007	5,56678231E-007	9,89043201E-007	34,2527924
31,5869217	3552870,75	-2644588	4429078,5	36,6622429	13,3967	-1,08078122	1,20793493E-006	-0,00190526247	-0,000679272634	1	14	0,0105204601	2,37531572E-009	1,8111426E-007	-1,34812836E-007	2,25780596E-007	-36,6622429
21,5220375	4179393	-942288,813	4284301	12,7055044	13,8176	-1,08078432	2,12057785E-006	-0,00784788653	-0,000379630277	1	14	0,0105254808	2,45675569E-009	2,27694883E-007	-5,13362437E-008	2,33410304E-007	-12,7055044
14,6851501	3049226	9904645	10363386	-72,888588	14,2790	-1,08078325	1,8599427E-006	0,00109421543	0,000999487354	1	14	0,0105242869	1,01552589E-009	2,83913657E-008	9,22222156E-008	9,6493558E-008	72,888588
9,9904108	25215950	12644267	28208538	-26,6309834	14,7299	-1,0807879	1,96747692E-006	0,00125992042	0,000253144972	1	14	0,0105251539	3,73119452E-010	3,16894102E-008	1,58903148E-008	3,54502596E-008	26,6309834
6,81718969	-2285465	10711928	10953025	-102,043877	15,0694	-1,08078396	2,6951509E-006	0,00217945082	0,00208455906	1	14	0,0105267987	9,61085989E-010	-1,90505069E-008	8,92893155E-008	9,1298979E-008	102,043877
4,63925123	8580461	598172,313	8601286	-3,98782635	15,5543	-1,08077431	2,32567527E-006	0,0573516525	0,00027737784	1	14	0,0105248941	1,22364197E-009	1,15980193E-007	8,0853626E-009	1,16261681E-007	3,98782635
3,16039586	10044764	7889522,5	12772699	-38,147377	16,2493	-1,08077478	1,37398877E-006	0,00638304511	0,00243536476	1	14	0,0105199777	8,23629942E-010	6,15707449E-008	4,83598939E-008	7,82919898E-008	38,147377
2,1522038	46670748	-24967968	52929748	28,1459389	17,2545	-1,08077955	1,5978909E-006	-0,00296178507	-0,000659052923	1	14	0,0105205877	1,98765115E-010	1,66588539E-008	-8,91217145E-009	1,88929672E-008	-28,1459389
1,46630979	106063088	-56402184	120127368	28,0031338	18,7161	-1,08077991	1,83212603E-006	-0,00192441395	-0,000424234924	1	14	0,0105227772	8,75968326E-011	7,34988115E-009	-3,90851707E-009	8,32449754E-009	-28,0031338
0,998529792	37145620	2373857,5	37221396	-3,65661693	20,8487	-1,08077908	1,78134189E-006	0,0671435744	0,000273104233	1	14	0,010523526	2,82727869E-010	2,68115734E-008	1,71344161E-009	2,68662674E-008	3,65661693