Folder: thesis/Experimentelles/Rohdaten/XRD

Note: README.md
# thesis

Zusammenfassung
---------------
Es konnten die Festkörperelektrolytkeramiken LATP, LAGP, LTO und LLTO hergestellt,
mit XRD und MAS-NMR charakterisiert und zu Elektrodensuspensionen weiterverarbeitet
werden. Aus den Daten der MAS-NMR konnten dabei gegenüber der XRD keine Mehrinfor-
mationen gewonnen werden. Die mit den Suspensionen gegossenen und gestanzten Elektro-
denproben wurden mittels REM und EDX untersucht und als Kathode in Testzellen verbaut.
Mit diesen wurden Ladekennlinien erstellt und eine zyklischer Voltametrie durchgeführt. Aus
den Ladekennlinien konnten die Kapazitäten und der Grad der Lithiuminsertation in die
Materialen bestimmt werden. Die zyklische Voltametrie lieferte nicht-reaktive Spannungsbe-
reiche der Materialien.

Für ein noch besseres Verständnis der Lithiumbewegung und -insertation wurde eine in-situ
NMR-Testzelle konzipiert, konstruiert, gebaut und getestet. Für den Test kam dabei eine
Lithium-Schwefel-Zelle zum Einsatz, für welche ein Di?usionskoe?zient sowie ein Spektrum
vor und nach einer 90 minütigen Ladezeit aufgenommen worden ist.

Abstract
--------
The all solid state electrolyte ceramics LATP, LAGP, LTO, and LLTO were successfully
synthesized and characterized by using XRD. MAS-NMR spectroscopy were not able to ge-
nerate additional information. All powders were processed to electrode slurries, casted on
aluminum foils and punched to electrode samples. Those samples were studied by SEM and
EDX and then build into battery test cells. The cells were analyzed by measuring the charge
curves as well as cyclic voltammetry. With the charge curves capacities and the amount of
lithium insertion were calculated. The cyclic voltammetry was able to detect non-reactive
voltage regions.

To be able to better understand lithium movement and insertion a novel in-situ NMR sample
cell was designed, constructed, built and tested. Therefore, a lithium-sulfur-cell was built into
the in-situ sample cell. With this setting a diffusion coeffcient as well as a NMR spectrum
before and after 90 minutes of charging were measured.

File: LATP Pattern.txt
2th            	  I      	 h   	k   	l    	Comments
14.685	13	0	1	2
20.844	50	1	0	4
24.492	100	1	1	3	  Strongest line.
25.600	8	2	0	2
29.642	28	0	2	4
32.395	20	2	1	1
33.224	26	1	1	6
36.544	25	3	0	0
38.818	1	1	2	5
42.422	3	2	2	0
44.482	12	2	2	3
45.152	2	3	1	2
47.720	17	1	3	4
49.613	5	3	1	5
50.234	16	0	4	2
52.562	2	0	0	12
54.365	6	1	3	7
54.915	7	2	1	10
57.220	22	4	1	0
58.873	7	4	1	3
61.562	3	0	4	8
63.155	2	3	2	7
63.676	8	4	1	6
65.766	5	3	3	0
67.309	3	2	4	1
67.801	4	4	2	2
69.812	4	2	4	4
71.326	6	5	1	1
71.746	2	1	2	14
73.760	5	5	1	4
75.233	3	1	5	5
77.658	5	6	0	0
79.029	1	3	3	9
79.562	1	3	4	2
81.470	1	5	2	0
82.770	1	2	2	15
82.881	1	5	2	3	  Less than given I.
83.289	1	0	4	14	  Less than given I.
86.655	1	1	6	1
87.146	1	6	1	2	  Less than given I.
89.015	1	1	6	4
90.336	2	1	5	11