Folder: thesis/Experimentelles/Rohdaten/Batterietests/AlteZelle/Studenten_Batterietests/LiNiMnO_LATP_LTO-Spinell/ECLab-Export

Note: README.md
# thesis

Zusammenfassung
---------------
Es konnten die Festkörperelektrolytkeramiken LATP, LAGP, LTO und LLTO hergestellt,
mit XRD und MAS-NMR charakterisiert und zu Elektrodensuspensionen weiterverarbeitet
werden. Aus den Daten der MAS-NMR konnten dabei gegenüber der XRD keine Mehrinfor-
mationen gewonnen werden. Die mit den Suspensionen gegossenen und gestanzten Elektro-
denproben wurden mittels REM und EDX untersucht und als Kathode in Testzellen verbaut.
Mit diesen wurden Ladekennlinien erstellt und eine zyklischer Voltametrie durchgeführt. Aus
den Ladekennlinien konnten die Kapazitäten und der Grad der Lithiuminsertation in die
Materialen bestimmt werden. Die zyklische Voltametrie lieferte nicht-reaktive Spannungsbe-
reiche der Materialien.

Für ein noch besseres Verständnis der Lithiumbewegung und -insertation wurde eine in-situ
NMR-Testzelle konzipiert, konstruiert, gebaut und getestet. Für den Test kam dabei eine
Lithium-Schwefel-Zelle zum Einsatz, für welche ein Di?usionskoe?zient sowie ein Spektrum
vor und nach einer 90 minütigen Ladezeit aufgenommen worden ist.

Abstract
--------
The all solid state electrolyte ceramics LATP, LAGP, LTO, and LLTO were successfully
synthesized and characterized by using XRD. MAS-NMR spectroscopy were not able to ge-
nerate additional information. All powders were processed to electrode slurries, casted on
aluminum foils and punched to electrode samples. Those samples were studied by SEM and
EDX and then build into battery test cells. The cells were analyzed by measuring the charge
curves as well as cyclic voltammetry. With the charge curves capacities and the amount of
lithium insertion were calculated. The cyclic voltammetry was able to detect non-reactive
voltage regions.

To be able to better understand lithium movement and insertion a novel in-situ NMR sample
cell was designed, constructed, built and tested. Therefore, a lithium-sulfur-cell was built into
the in-situ sample cell. With this setting a diffusion coeffcient as well as a NMR spectrum
before and after 90 minutes of charging were measured.

File: LiNiMnO-LATP-LTO_Spinell_02_PEIS_C01.mpt
EC-Lab ASCII FILE
Nb header lines : 68

Potentio Electrochemical Impedance Spectroscopy

Run on channel : 1 (SN 6985)
Grouped channel(s) : 1
User :
CE vs. WE compliance from -10 V to 10 V
Electrode connection : standard
Ewe ctrl range : min = -5,00 V, max = 5,00 V
Acquisition started on : 02.09.2015 13:33:11
Saved on :
	File : LiNiMnO-LATP-LTO_Spinell_02_PEIS_C01.mpr
	Directory : C:\Hupfer\Studenten Batterietests\LiNiMnO_LATP_LTO-Spinell\
	Host : 192.168.0.2
Device : VMP3 (SN 0324)
Address : 192.168.0.1
EC-Lab for windows v10.33 (software)
Internet server v10.33 (firmware)
Command interpretor v10.32 (firmware)
Electrode material :
Initial state :
Electrolyte :
Comments :
Mass of active material : 0,001 mg
 at x = 0,000
Molecular weight of active material (at x = 0) : 0,001 g/mol
Atomic weight of intercalated ion : 0,001 g/mol
Acquisition started at : xo = 0,000
Number of e- transfered per intercalated ion : 1
for DX = 1, DQ = 26,801 mA.h
Battery capacity : 0,000 A.h
Electrode surface area : 0,001 cm²
Characteristic mass : 0,001 g
Multi Sine          0
E (V)               0,0000
vs.                 Eoc
tE (h:m:s)          0:00:0,0000
record              0
dI                  0,000
unit dI             mA
dt (s)              0,000
fi                  1,000
unit fi             MHz
ff                  1,000
unit ff             Hz
Sel Nd              1
Nd                  6
Nt                  51
Log                 1
Va (mV)             10,0
pw                  0,10
Na                  1
E range min (V)     -5,000
E range max (V)     5,000
I Range             Auto
Bandwidth           5
corr                0
nc cycles           0
goto Ns'            0
nr cycles           0
inc. cycle          0

Number of loops : 1
Loop 0 from point number 0 to 36

freq/Hz	Re(Z)/Ohm	-Im(Z)/Ohm	|Z|/Ohm	Phase(Z)/deg	time/s	<Ewe>/V	<I>/mA	Cs/µF	Cp/µF	cycle number	I Range	|Ewe|/V	|I|/A	Re(Y)/Ohm-1	Im(Y)/Ohm-1	|Y|/Ohm-1	Phase(Y)/deg
1000024,25	160,67067	2645,50781	2650,38232	-86,524498	602,9622	0,458314598	-0,00089377322	6,01589927E-005	5,99379127E-005	1	12	0,00422951905	1,59581475E-006	2,28728368E-005	0,000376610144	0,000377304066	86,524498
681286,5	-172,52887	4849,58496	4852,65283	-92,0374985	603,1742	0,457473457	0,000112960544	4,81710122E-005	4,81101233E-005	1	12	0,0104707973	2,15774708E-006	-7,32662375E-006	0,000205942561	0,000206072844	92,0374985
464160,125	1560,24731	4720,34717	4971,52393	-71,7093887	603,7222	0,457582772	1,04351702E-005	7,26404251E-005	6,54858086E-005	1	13	0,00976803899	1,96479778E-006	6,31268922E-005	0,000190983075	0,000201145565	71,7093887
316223,094	2099,29028	6820,13623	7135,91455	-72,8912354	603,9342	0,457639366	1,07594369E-005	7,37961163E-005	6,74093826E-005	1	13	0,0108746123	1,52392693E-006	4,1226187E-005	0,000133934911	0,00014013621	72,8912354
215441,859	2818,01099	9666,91797	10069,2842	-73,748024	604,1462	0,457665712	1,16633319E-005	7,64191136E-005	7,04337581E-005	1	13	0,0108521432	1,07774724E-006	2,7793647E-005	9,53434428E-005	9,93119247E-005	73,748024
146777,328	4079,46729	13606,2695	14204,6689	-73,3100815	604,3582	0,457703114	9,84990766E-006	7,96933527E-005	7,31203036E-005	1	13	0,0107344678	7,55699944E-007	2,021814E-005	6,7433677E-005	7,03993865E-005	73,3100815
100024,406	6826,68213	18769,4238	19972,3516	-70,0130157	604,5702	0,457826138	-3,66342046E-009	8,47741103E-005	7,48698003E-005	1	13	0,0106944907	5,35464778E-007	1,71139927E-005	4,70535633E-005	5,00692186E-005	70,0130157
68127,4297	9587,8916	25236,7949	26996,7305	-69,1973572	604,7822	0,457706541	8,84907331E-006	9,25686545E-005	8,08928235E-005	1	13	0,0105737373	3,91667328E-007	1,31552997E-005	3,46267589E-005	3,70415219E-005	69,1973572
46411,125	14346,3193	33127,1719	36100,2266	-66,5841064	604,9942	0,457722098	8,80061179E-006	0,000103517479	8,71691009E-005	1	13	0,0103600649	2,86980594E-007	1,10083092E-005	2,54193528E-005	2,77006566E-005	66,5841064
31628,4121	23906,041	45169,3086	51105,4336	-62,109787	605,4402	0,457735419	-4,92065055E-006	0,00011140362	8,70266012E-005	1	14	0,00980507489	1,91859741E-007	9,15321198E-006	1,72945511E-005	1,95673911E-005	62,109787
21545,4082	34674,9023	56169,5547	66010,3594	-58,3119049	605,6522	0,45772922	-4,78853508E-006	0,000131511712	9,52230694E-005	1	14	0,0101605514	1,5392358E-007	7,95776396E-006	1,28907086E-005	1,51491377E-005	58,3119049
14672,8496	50088,9648	69201,3281	85426,7422	-54,1024132	605,8642	0,457736313	-5,39302846E-006	0,000156744107	0,000102856655	1	14	0,0100855576	1,18060896E-007	6,86363819E-006	9,48258457E-006	1,17059362E-005	54,1024132
10015,2705	69702,8203	81221,8594	107030,25	-49,3645287	605,9965	0,457745343	-5,2225264E-006	0,000195652116	0,000112672336	1	14	0,010654523	9,95468383E-008	6,08467371E-006	7,09022197E-006	9,34315267E-006	49,3645287
6856,00244	93158,2891	92984,3984	131622,813	-44,946476	606,1807	0,457750887	-5,31886508E-006	0,000249654317	0,000124593935	1	14	0,0109102735	8,28904447E-008	5,3772369E-006	5,36719972E-006	7,59746717E-006	44,946476
4642,42725	119233,727	100528,539	155957,266	-40,134964	606,4168	0,457750499	-4,81341385E-006	0,00034102457	0,00014169456	1	14	0,0102680195	6,58386767E-008	4,90216462E-006	4,13312091E-006	6,41201268E-006	40,134964
3160,05566	58973,7539	141518,688	153314,844	-67,3775024	606,6529	0,457748413	-4,8146253E-006	0,000355886586	0,000303229055	1	14	0,0106308954	6,93402882E-008	2,5089405E-006	6,02067803E-006	6,52252584E-006	67,3775024
2152,93286	177611,047	105194,883	206425,891	-30,6372719	606,8894	0,457753271	-5,14603425E-006	0,000702740566	0,000182497082	1	14	0,0107393423	5,20251717E-008	4,16813373E-006	2,46868854E-006	4,8443535E-006	30,6372719
1468,58972	206804,219	106355,797	232550,078	-27,2159672	607,1254	0,457753092	-4,90733055E-006	0,00101896317	0,0002131316	1	14	0,0107974382	4,64305927E-008	3,82407507E-006	1,96665496E-006	4,30014916E-006	27,2159672
999,040405	232801,938	107928,414	256603,359	-24,8727303	607,3614	0,457753092	-5,13904615E-006	0,00147605082	0,000261124864	1	14	0,0108140334	4,21429931E-008	3,53559017E-006	1,63912148E-006	3,8970652E-006	24,8727303
681,089661	259105,047	113790,313	282990,563	-23,7094822	607,5968	0,457749426	-5,25252881E-006	0,00205357489	0,000332029915	1	14	0,0108181294	3,82278813E-008	3,23542963E-006	1,420893E-006	3,53368682E-006	23,7094822
464,553894	281799,375	108695,828	302035,875	-21,0926552	607,8334	0,457753211	-4,7253684E-006	0,00315189082	0,000408206426	1	14	0,010819735	3,58226799E-008	3,089036E-006	1,19150479E-006	3,31086494E-006	21,0926552
316,315765	311707,188	108799,914	330149,656	-19,2412987	608,0683	0,457752794	-5,26575877E-006	0,00462456327	0,000502234034	1	14	0,0108212857	3,27769101E-008	2,85973056E-006	9,98175324E-007	3,02892931E-006	19,2412987
215,344498	337587,531	115875,461	356920,813	-18,944561	608,3049	0,457750648	-5,23547851E-006	0,00637815194	0,000672255061	1	14	0,01082124	3,03183221E-008	2,64998039E-006	9,09594235E-007	2,80174186E-006	18,944561
146,737289	364750,906	108798,828	380631,594	-16,608923	608,5386	0,457750857	-4,90686489E-006	0,00996908732	0,000814505795	1	14	0,0108136619	2,84097847E-008	2,51760002E-006	7,50956076E-007	2,62721233E-006	16,608923
99,9040375	390164,031	109271,234	405176,719	-15,6456928	608,7744	0,457749367	-4,86316776E-006	0,0145791182	0,00106036151	1	14	0,0108108735	2,66818727E-008	2,37661197E-006	6,65605512E-007	2,46805894E-006	15,6456928
68,1888962	407311,719	112810,477	422645,281	-15,4807892	609,0160	0,457749546	-4,68754115E-006	0,0206898358	0,00147402158	1	14	0,0108131971	2,55845691E-008	2,28020986E-006	6,31534931E-007	2,36605024E-006	15,4807892
46,3802681	431812,938	26661,1719	432635,219	-3,53309464	609,2457	0,457750797	-5,15637657E-006	0,128708616	0,000488790043	1	14	0,0108127147	2,49926817E-008	2,3070229E-006	1,42441152E-007	2,31141598E-006	3,53309464
31,5869217	473462,219	79757,8672	480133,094	-9,56208038	609,4702	0,457746238	-4,6838145E-006	0,063174136	0,00174326368	1	14	0,01081846	2,25322108E-008	2,05381843E-006	3,45979402E-007	2,08275583E-006	9,56208038
21,5220375	476701,844	104059,25	487927,219	-12,3139334	609,6916	0,457745731	-4,34457979E-006	0,0710650533	0,00323226792	1	14	0,0108128861	2,2160858E-008	2,00233512E-006	4,37089767E-007	2,04948606E-006	12,3139334
14,6851501	528908	95649,7969	537487,25	-10,250803	609,9329	0,457754701	-4,57405895E-006	0,113307253	0,00358830602	1	14	0,0108169029	2,01249488E-008	1,83081215E-006	3,31091258E-007	1,8605092E-006	10,250803
9,9904108	564975,063	89929,0469	572087,438	-9,04409695	610,1694	0,457749605	-4,88701971E-006	0,177148223	0,00437735673	1	14	0,0108150281	1,89045029E-008	1,726253E-006	2,74773697E-007	1,74798458E-006	9,04409695
6,81718969	578414,313	79704,1719	583880	-7,84581804	610,3466	0,457747221	-3,95633651E-006	0,292909652	0,00545818917	1	14	0,010822461	1,85354203E-008	1,69664827E-006	2,33794282E-007	1,71268073E-006	7,84581804
4,63925123	593002	98038,1172	601051,438	-9,38751793	610,6003	0,45775196	-5,18814841E-006	0,349926889	0,00930987671	1	14	0,0108209271	1,80033286E-008	1,64146979E-006	2,71376166E-007	1,66375116E-006	9,38751793
3,16039586	641668,125	104750,383	650162	-9,27157879	610,9652	0,457754433	-4,4982803E-006	0,480754137	0,0124793248	1	14	0,0108144218	1,66334271E-008	1,5179844E-006	2,47806355E-007	1,53807821E-006	9,27157879
2,1522038	663231,563	103189,945	671211,063	-8,84355164	611,4913	0,457752883	-4,92277877E-006	0,716637194	0,0169377569	1	14	0,0108180763	1,61172498E-008	1,47213279E-006	2,29044133E-007	1,48984429E-006	8,84355164
1,46630979	680541,313	97221,0781	687450,688	-8,13017559	612,2563	0,457753032	-4,62146045E-006	1,11643648	0,0223291274	1	14	0,0108153969	1,57326152E-008	1,44002956E-006	2,05720383E-007	1,45464981E-006	8,13017559
0,998529792	693356,625	92004,0156	699434,188	-7,55862904	613,3728	0,457755774	-4,36187838E-006	1,73241663	0,0299758967	1	14	0,0108161177	1,54640958E-008	1,41730379E-006	1,88067204E-007	1,42972704E-006	7,55862904

File: LiNiMnO-LATP-LTO_Spinell_05_OCV_C01.mpt
EC-Lab ASCII FILE
Nb header lines : 46

Open Circuit Voltage

Run on channel : 1 (SN 6985)
Grouped channel(s) : 1
User :
CE vs. WE compliance from -10 V to 10 V
Electrode connection : standard
Ewe ctrl range : min = -5,00 V, max = 5,00 V
Acquisition started on : 02.09.2015 13:33:11
Saved on :
	File : LiNiMnO-LATP-LTO_Spinell_05_OCV_C01.mpr
	Directory : C:\Hupfer\Studenten Batterietests\LiNiMnO_LATP_LTO-Spinell\
	Host : 192.168.0.2
Device : VMP3 (SN 0324)
Address : 192.168.0.1
EC-Lab for windows v10.33 (software)
Internet server v10.33 (firmware)
Command interpretor v10.32 (firmware)
Electrode material :
Initial state :
Electrolyte :
Comments :
Mass of active material : 0,001 mg
 at x = 0,000
Molecular weight of active material (at x = 0) : 0,001 g/mol
Atomic weight of intercalated ion : 0,001 g/mol
Acquisition started at : xo = 0,000
Number of e- transfered per intercalated ion : 1
for DX = 1, DQ = 26,801 mA.h
Battery capacity : 0,000 A.h
Electrode surface area : 0,001 cm²
Characteristic mass : 0,001 g
tR (h:m:s)          0:10:30,0000
dER/dt (mV/h)       0,0
dER (mV)            0,00
dtR (s)             5,0000
E range min (V)     -5,000
E range max (V)     5,000

Number of loops : 1
Loop 0 from point number 0 to 126

mode	error	time/s	Ewe/V
3	0	37213,4868	1,42385864
3	0	37218,4868	1,33907723
3	0	37223,4868	1,33059907
3	0	37228,4868	1,33543015
3	0	37233,4868	1,34150231
3	0	37238,4868	1,33178294
3	0	37243,4868	1,32013512
3	0	37248,4868	1,31347096
3	0	37253,4868	1,31478846
3	0	37258,4868	1,3213954
3	0	37263,4868	1,32607365
3	0	37268,4868	1,3206507
3	0	37273,4868	1,30898368
3	0	37278,4868	1,30207133
3	0	37283,4868	1,30716968
3	0	37288,4868	1,31669796
3	0	37293,4868	1,31192422
3	0	37298,4868	1,29781318
3	0	37303,4868	1,29867244
3	0	37308,4868	1,30970931
3	0	37313,4868	1,30900276
3	0	37318,4868	1,29599917
3	0	37323,4868	1,28771198
3	0	37328,4868	1,29307759
3	0	37333,4868	1,29981816
3	0	37338,4868	1,30205226
3	0	37343,4868	1,30088747
3	0	37348,4868	1,29410875
3	0	37353,4868	1,28648984
3	0	37358,4868	1,27988303
3	0	37363,4868	1,27755344
3	0	37368,4868	1,28070414
3	0	37373,4868	1,28939223
3	0	37378,4868	1,29324949
3	0	37383,4868	1,2870245
3	0	37388,4868	1,28045583
3	0	37393,4868	1,27234054
3	0	37398,4868	1,26928532
3	0	37403,4868	1,2742691
3	0	37408,4868	1,28131509
3	0	37413,4868	1,28524864
3	0	37418,4868	1,28356838
3	0	37423,4868	1,27602589
3	0	37428,4868	1,26697481
3	0	37433,4868	1,26393878
3	0	37438,4868	1,26237297
3	0	37443,4868	1,26691759
3	0	37448,4868	1,27386808
3	0	37453,4868	1,27606404
3	0	37458,4868	1,27728617
3	0	37463,4868	1,27316165
3	0	37468,4868	1,26745224
3	0	37473,4868	1,26197195
3	0	37478,4868	1,25473499
3	0	37483,4868	1,25158441
3	0	37488,4868	1,25322652
3	0	37493,4868	1,25874496
3	0	37498,4868	1,26674569
3	0	37503,4868	1,2659055
3	0	37508,4868	1,26619196
3	0	37513,4868	1,26411068
3	0	37518,4868	1,26080716
3	0	37523,4868	1,25679731
3	0	37528,4868	1,25307381
3	0	37533,4868	1,24429011
3	0	37538,4868	1,24154043
3	0	37543,4868	1,24369812
3	0	37548,4868	1,24744081
3	0	37553,4868	1,25549877
3	0	37558,4868	1,25507879
3	0	37563,4868	1,25723648
3	0	37568,4868	1,25124061
3	0	37573,4868	1,24583685
3	0	37578,4868	1,23611748
3	0	37583,4868	1,23159206
3	0	37588,4868	1,23512459
3	0	37593,4868	1,23886716
3	0	37598,4868	1,24637151
3	0	37603,4868	1,24717343
3	0	37608,4868	1,24784172
3	0	37613,4868	1,24476755
3	0	37618,4868	1,23928726
3	0	37623,4868	1,23699582
3	0	37628,4868	1,23657572
3	0	37633,4868	1,2390008
3	0	37638,4868	1,24266708
3	0	37643,4868	1,238428
3	0	37648,4868	1,22804034
3	0	37653,4868	1,21868384
3	0	37658,4868	1,2264173
3	0	37663,4868	1,23756874
3	0	37668,4868	1,22504246
3	0	37673,4868	1,21774817
3	0	37678,4868	1,23012173
3	0	37683,4868	1,22962523
3	0	37688,4868	1,2130127
3	0	37693,4868	1,22783029
3	0	37698,4868	1,22299933
3	0	37703,4868	1,2124207
3	0	37708,4868	1,22937703
3	0	37713,4868	1,21509397
3	0	37718,4868	1,20951831
3	0	37723,4868	1,22553897
3	0	37728,4868	1,21343279
3	0	37733,4868	1,20592844
3	0	37738,4868	1,22023058
3	0	37743,4868	1,21734715
3	0	37748,4868	1,20170844
3	0	37753,4868	1,2130127
3	0	37758,4868	1,21755719
3	0	37763,4868	1,20048642
3	0	37768,4868	1,20862079
3	0	37773,4868	1,21545684
3	0	37778,4868	1,20054364
3	0	37783,4868	1,19960809
3	0	37788,4868	1,2141583
3	0	37793,4868	1,20147932
3	0	37798,4868	1,19527352
3	0	37803,4868	1,21045399
3	0	37808,4868	1,20191848
3	0	37813,4868	1,19137812
3	0	37818,4868	1,20310235
3	0	37823,4868	1,20573747
3	0	37828,4868	1,18864751
3	0	37833,4868	1,19792771
3	0	37838,4868	1,20424807
3	0	37843,4868	1,1886667