Folder: thesis/Experimentelles/Rohdaten/Batterietests/AlteZelle/Studenten_Batterietests/LiNiMnO_LATP_LTO-Spinell/ECLab-Export (part 2)

File: LiNiMnO-LATP-LTO_Spinell_06_PEIS_C01.mpt
EC-Lab ASCII FILE
Nb header lines : 68

Potentio Electrochemical Impedance Spectroscopy

Run on channel : 1 (SN 6985)
Grouped channel(s) : 1
User :
CE vs. WE compliance from -10 V to 10 V
Electrode connection : standard
Ewe ctrl range : min = -5,00 V, max = 5,00 V
Acquisition started on : 02.09.2015 13:33:11
Saved on :
	File : LiNiMnO-LATP-LTO_Spinell_06_PEIS_C01.mpr
	Directory : C:\Hupfer\Studenten Batterietests\LiNiMnO_LATP_LTO-Spinell\
	Host : 192.168.0.2
Device : VMP3 (SN 0324)
Address : 192.168.0.1
EC-Lab for windows v10.33 (software)
Internet server v10.33 (firmware)
Command interpretor v10.32 (firmware)
Electrode material :
Initial state :
Electrolyte :
Comments :
Mass of active material : 0,001 mg
 at x = 0,000
Molecular weight of active material (at x = 0) : 0,001 g/mol
Atomic weight of intercalated ion : 0,001 g/mol
Acquisition started at : xo = 0,000
Number of e- transfered per intercalated ion : 1
for DX = 1, DQ = 26,801 mA.h
Battery capacity : 0,000 A.h
Electrode surface area : 0,001 cm²
Characteristic mass : 0,001 g
Multi Sine          0
E (V)               0,0000
vs.                 Eoc
tE (h:m:s)          0:00:0,0000
record              0
dI                  0,000
unit dI             mA
dt (s)              0,000
fi                  1,000
unit fi             MHz
ff                  1,000
unit ff             Hz
Sel Nd              1
Nd                  6
Nt                  51
Log                 1
Va (mV)             10,0
pw                  0,10
Na                  2
E range min (V)     -5,000
E range max (V)     5,000
I Range             Auto
Bandwidth           5
corr                0
nc cycles           0
goto Ns'            0
nr cycles           0
inc. cycle          0

Number of loops : 1
Loop 0 from point number 0 to 36

freq/Hz	Re(Z)/Ohm	-Im(Z)/Ohm	|Z|/Ohm	Phase(Z)/deg	time/s	<Ewe>/V	<I>/mA	Cs/µF	Cp/µF	cycle number	I Range	|Ewe|/V	|I|/A	Re(Y)/Ohm-1	Im(Y)/Ohm-1	|Y|/Ohm-1	Phase(Y)/deg
1000024,25	973,739136	3192,46997	3337,6687	-73,0377045	37850,1379	1,18891478	-0,00112936844	4,98520203E-005	4,56089401E-005	1	12	0,0046108258	1,38145106E-006	8,7409011E-005	0,000286576338	0,000299610314	73,0377045
681286,5	-95,0712128	4868,71045	4869,63867	-91,1186676	37850,4520	1,18838477	0,000109942244	4,79817863E-005	4,79634946E-005	1	12	0,010323422	2,11995643E-006	-4,00916679E-006	0,000205314907	0,000205354052	91,1186676
464160,125	1599,22546	4707,43408	4971,66553	-71,2361755	37851,1019	1,18849409	1,08936483E-005	7,28396844E-005	6,53029419E-005	1	13	0,00973602291	1,95830216E-006	6,47002307E-005	0,000190449762	0,000201139832	71,2361755
316223,094	2146,86548	6805,89209	7136,46973	-72,4925232	37851,4160	1,18853521	1,33220728E-005	7,39505631E-005	6,72581227E-005	1	13	0,0108511299	1,52051791E-006	4,21539335E-005	0,000133634385	0,00014012531	72,4925232
215441,859	2905,33325	9647,90625	10075,8652	-73,2410507	37851,7299	1,18858552	1,24666021E-005	7,65697041E-005	7,02034449E-005	1	13	0,0108759329	1,07940434E-006	2,86174763E-005	9,50316753E-005	9,92470596E-005	73,2410507
146777,328	4149,12012	13524,6025	14146,7334	-72,94487	37852,0440	1,18858886	1,28467937E-005	8,01745773E-005	7,32779517E-005	1	13	0,0107509121	7,59957231E-007	2,07321173E-005	6,75790652E-005	7,06876963E-005	72,94487
100024,406	6150,07275	18764,4375	19746,582	-71,853363	37852,3579	1,18832362	3,64180164E-006	8,47966367E-005	7,65712684E-005	1	13	0,0107047111	5,42104488E-007	1,57723516E-005	4,8122889E-005	5,06416764E-005	71,853363
68127,4297	9614,73047	25222,5078	26992,9238	-69,1333313	37852,6719	1,1886096	1,28635565E-005	9,26210851E-005	8,08698314E-005	1	13	0,0105785895	3,91902319E-007	1,31958459E-005	3,46169181E-005	3,7046746E-005	69,1333313
46411,125	14366,0918	33022,082	36011,6992	-66,4887924	37852,9859	1,18860602	1,44346832E-005	0,00010384692	8,73203098E-005	1	13	0,0104782796	2,90968757E-007	1,10777455E-005	2,54634488E-005	2,77687541E-005	66,4887924
31628,4121	21711,4824	42327,8555	47571,375	-62,8450775	37853,2999	1,18862557	1,05916606E-005	0,000118882097	9,41190665E-005	1	13	0,0101773972	2,13939515E-007	9,59396402E-006	1,87040168E-005	2,10210455E-005	62,8450775
21545,4082	35040,8086	56261,1406	66281,0234	-58,0843468	37853,6439	1,18863332	-3,51954895E-006	0,000131297624	9,46009532E-005	1	14	0,0091334153	1,37798338E-007	7,97619305E-006	1,28064903E-005	1,50872747E-005	58,0843468
14672,8496	50058,0781	68099,2266	84518,1406	-53,6813011	37853,8559	1,18864453	-4,11081146E-006	0,000159280826	0,000103406528	1	14	0,0100956326	1,19449297E-007	7,00768078E-006	9,5332789E-006	1,18317794E-005	53,6813011
10015,2705	69121,2891	80940,6328	106438,422	-49,5034981	37854,1082	1,18865657	-3,87154932E-006	0,000196331894	0,000113534326	1	14	0,0106712822	1,002578E-007	6,10119559E-006	7,1444656E-006	9,39510392E-006	49,5034981
6856,00244	91798,3672	92496,6484	130317,188	-45,2170868	37854,4576	1,18866229	-4,4957942E-006	0,00025097077	0,000126436295	1	14	0,0109234173	8,38217673E-008	5,4054467E-006	5,44656359E-006	7,67358506E-006	45,2170868
4642,42725	119223,313	99576,9531	155337,594	-39,8690987	37854,9088	1,18865728	-3,57778276E-006	0,0003442835	0,000141475335	1	14	0,0102798883	6,61777264E-008	4,94092228E-006	4,12672671E-006	6,43759176E-006	39,8690987
3160,05566	141337,172	101641,125	174089,391	-35,7213974	37855,3598	1,188658	-3,32249488E-006	0,000495514018	0,000168908024	1	14	0,010610641	6,09493824E-008	4,6634982E-006	3,35370487E-006	5,74417527E-006	35,7213974
2152,93286	175595,094	105823,664	205017,766	-31,0755749	37855,8113	1,18865705	-3,61989623E-006	0,00069856504	0,000186118457	1	14	0,0107488316	5,24287813E-008	4,17762431E-006	2,51767574E-006	4,877626E-006	31,0755749
1468,58972	203904,125	104437,609	229094,094	-27,1210632	37856,2623	1,18865168	-3,42516933E-006	0,00103767833	0,000215649678	1	14	0,0108096739	4,71844288E-008	3,88506442E-006	1,98989051E-006	4,36501887E-006	27,1210632
999,040405	230886,422	105481,242	253840,172	-24,5534515	37856,7133	1,18865323	-3,26417012E-006	0,0015102952	0,000260790403	1	14	0,0108262133	4,26497238E-008	3,58325474E-006	1,63702214E-006	3,93948676E-006	24,5534515
681,089661	253867,578	104849,266	274667,281	-22,4410038	37857,1638	1,18865621	-3,3115009E-006	0,00222869404	0,00032476362	1	14	0,0108325351	3,94387527E-008	3,36506423E-006	1,3897976E-006	3,64076845E-006	22,4410038
464,553894	281826,281	104944,133	300731,313	-20,4239063	37857,6153	1,18865728	-3,11882377E-006	0,00326456898	0,000397543714	1	14	0,0108353877	3,603013E-008	3,11619192E-006	1,16038166E-006	3,32522745E-006	20,4239063
316,315765	306141,375	107049,711	324318,031	-19,2734089	37858,0643	1,18865454	-2,63461538E-006	0,00470017269	0,000512085622	1	14	0,0108352695	3,34093961E-008	2,91058223E-006	1,01775515E-006	3,08339327E-006	19,2734089
215,344498	332885,469	102482,969	348303,75	-17,111639	37858,5148	1,18865657	-2,65520589E-006	0,00721165026	0,000624340842	1	14	0,0108344425	3,11063033E-008	2,74396484E-006	8,44764031E-007	2,87105718E-006	17,111639
146,737289	361867,031	105453,109	376919,219	-16,2468624	37858,9617	1,18865597	-2,39143924E-006	0,0102853775	0,00080508634	1	14	0,0108325686	2,87397626E-008	2,54713768E-006	7,42271595E-007	2,65308836E-006	16,2468624
99,9040375	384976,656	106094,797	399328,344	-15,407548	37859,4133	1,18865371	-2,453864E-006	0,0150156105	0,00105991471	1	14	0,0108320564	2,71256884E-008	2,4142048E-006	6,6532499E-007	2,50420499E-006	15,407548
68,1888962	405599,281	115386,352	421692,75	-15,8801851	37859,8754	1,18866098	-2,77903018E-006	0,0202279557	0,0015144978	1	14	0,0108362259	2,56969699E-008	2,28089289E-006	6,48876721E-007	2,37139488E-006	15,8801851
46,3802681	457206,281	26475,7305	457972,219	-3,31416154	37860,3141	1,18865454	-2,22671338E-006	0,129610121	0,00043316817	1	14	0,0108320154	2,36521238E-008	2,17988668E-006	1,26232067E-007	2,18353853E-006	3,31416154
31,5869217	481991,906	94841,3828	491234,25	-11,131856	37860,7440	1,18865836	-2,0645964E-006	0,0531269573	0,00198031124	1	14	0,0108315265	2,20496155E-008	1,99738815E-006	3,93025346E-007	2,03568857E-006	11,131856
21,5220375	492786,375	87914,4609	500567,031	-10,1153078	37861,1660	1,18866634	-1,87900014E-006	0,0841155797	0,002594613	1	14	0,0108301202	2,16357048E-008	1,96668225E-006	3,50861598E-007	1,99773444E-006	10,1153078
14,6851501	516968,75	80185,7188	523150,5	-8,81674671	37861,6264	1,18865931	-1,99872466E-006	0,135158926	0,00317530544	1	14	0,0108280107	2,06976978E-008	1,88890897E-006	2,92983913E-007	1,91149593E-006	8,81674671
9,9904108	521233,719	83913,3984	527945,125	-9,14557266	37862,0773	1,18865371	-1,85030331E-006	0,189847767	0,00479612546	1	14	0,0108305793	2,05145927E-008	1,87005742E-006	3,01060453E-007	1,89413629E-006	9,14557266
6,81718969	558752,75	86066,0391	565342,375	-8,75658798	37862,4167	1,18865776	-2,04540288E-006	0,271258235	0,0062867105	1	14	0,0108344378	1,91643839E-008	1,74822208E-006	2,69282879E-007	1,76883964E-006	8,75658798
4,63925123	563265,438	75178,4922	568260,313	-7,60228252	37862,9017	1,18865883	-1,68119891E-006	0,456329584	0,00798677094	1	14	0,0108325612	1,90626732E-008	1,74428908E-006	2,32808574E-007	1,75975686E-006	7,60228252
3,16039586	585556,438	75590,0547	590415,25	-7,35568953	37863,5955	1,18866217	-1,9370143E-006	0,666214347	0,010920139	1	14	0,010830245	1,8343437E-008	1,67978465E-006	2,16845066E-007	1,69372322E-006	7,35568953
2,1522038	598193,875	58467,2695	601044,375	-5,58233929	37864,6009	1,18866503	-1,36559152E-006	1,26480591	0,0119684106	1	14	0,0108322697	1,8022412E-008	1,65588017E-006	1,61845179E-007	1,66377072E-006	5,58233929
1,46630979	621350	63516,457	624588	-5,83669043	37866,0623	1,18866289	-9,43915211E-007	1,7088666	0,0176723134	1	14	0,0108335856	1,73451706E-008	1,59275521E-006	1,62816718E-007	1,60105537E-006	5,83669043
0,998529792	630141,125	58958,5156	632893,313	-5,34526014	37868,1941	1,18866467	-3,64663805E-007	2,70341396	0,0234608985	1	14	0,0108310217	1,71135035E-008	1,57317413E-006	1,47192452E-007	1,58004514E-006	5,34526014