Folder: thesis/Experimentelles/Rohdaten/Batterietests/AlteZelle/Studenten_Batterietests/LiNiMnO_LATP_LTO-Spinell/ZView-Export

Note: Experimentelles/Rohdaten/Batterietests/AlteZelle/Studenten_Batterietests/LiNiMnO_LATP_LTO-Spinell/ZView-Export/LiNiMnO-LATP-LTO_Spinell_02_PEIS_C01.txt
1000024,25	160,67067	-2645,50781
681286,5	-172,52887	-4849,58496
464160,125	1560,24731	-4720,34717
316223,094	2099,29028	-6820,13623
215441,859	2818,01099	-9666,91797
146777,328	4079,46729	-13606,2695
100024,406	6826,68213	-18769,4238
68127,4297	9587,8916	-25236,7949
46411,125	14346,3193	-33127,1719
31628,4121	23906,041	-45169,3086
21545,4082	34674,9023	-56169,5547
14672,8496	50088,9648	-69201,3281
10015,2705	69702,8203	-81221,8594
6856,00244	93158,2891	-92984,3984
4642,42725	119233,727	-100528,539
3160,05566	58973,7539	-141518,688
2152,93286	177611,047	-105194,883
1468,58972	206804,219	-106355,797
999,040405	232801,938	-107928,414
681,089661	259105,047	-113790,313
464,553894	281799,375	-108695,828
316,315765	311707,188	-108799,914
215,344498	337587,531	-115875,461
146,737289	364750,906	-108798,828
99,9040375	390164,031	-109271,234
68,1888962	407311,719	-112810,477
46,3802681	431812,938	-26661,1719
31,5869217	473462,219	-79757,8672
21,5220375	476701,844	-104059,25
14,6851501	528908	-95649,7969
9,9904108	564975,063	-89929,0469
6,81718969	578414,313	-79704,1719
4,63925123	593002	-98038,1172
3,16039586	641668,125	-104750,383
2,1522038	663231,563	-103189,945
1,46630979	680541,313	-97221,0781
0,998529792	693356,625	-92004,0156

Note: Experimentelles/Rohdaten/Batterietests/AlteZelle/Studenten_Batterietests/LiNiMnO_LATP_LTO-Spinell/ZView-Export/LiNiMnO-LATP-LTO_Spinell_06_PEIS_C01.txt
1000024,25	973,739136	-3192,46997
681286,5	-95,0712128	-4868,71045
464160,125	1599,22546	-4707,43408
316223,094	2146,86548	-6805,89209
215441,859	2905,33325	-9647,90625
146777,328	4149,12012	-13524,6025
100024,406	6150,07275	-18764,4375
68127,4297	9614,73047	-25222,5078
46411,125	14366,0918	-33022,082
31628,4121	21711,4824	-42327,8555
21545,4082	35040,8086	-56261,1406
14672,8496	50058,0781	-68099,2266
10015,2705	69121,2891	-80940,6328
6856,00244	91798,3672	-92496,6484
4642,42725	119223,313	-99576,9531
3160,05566	141337,172	-101641,125
2152,93286	175595,094	-105823,664
1468,58972	203904,125	-104437,609
999,040405	230886,422	-105481,242
681,089661	253867,578	-104849,266
464,553894	281826,281	-104944,133
316,315765	306141,375	-107049,711
215,344498	332885,469	-102482,969
146,737289	361867,031	-105453,109
99,9040375	384976,656	-106094,797
68,1888962	405599,281	-115386,352
46,3802681	457206,281	-26475,7305
31,5869217	481991,906	-94841,3828
21,5220375	492786,375	-87914,4609
14,6851501	516968,75	-80185,7188
9,9904108	521233,719	-83913,3984
6,81718969	558752,75	-86066,0391
4,63925123	563265,438	-75178,4922
3,16039586	585556,438	-75590,0547
2,1522038	598193,875	-58467,2695
1,46630979	621350	-63516,457
0,998529792	630141,125	-58958,5156

Note: README.md
# thesis

Zusammenfassung
---------------
Es konnten die Festkörperelektrolytkeramiken LATP, LAGP, LTO und LLTO hergestellt,
mit XRD und MAS-NMR charakterisiert und zu Elektrodensuspensionen weiterverarbeitet
werden. Aus den Daten der MAS-NMR konnten dabei gegenüber der XRD keine Mehrinfor-
mationen gewonnen werden. Die mit den Suspensionen gegossenen und gestanzten Elektro-
denproben wurden mittels REM und EDX untersucht und als Kathode in Testzellen verbaut.
Mit diesen wurden Ladekennlinien erstellt und eine zyklischer Voltametrie durchgeführt. Aus
den Ladekennlinien konnten die Kapazitäten und der Grad der Lithiuminsertation in die
Materialen bestimmt werden. Die zyklische Voltametrie lieferte nicht-reaktive Spannungsbe-
reiche der Materialien.

Für ein noch besseres Verständnis der Lithiumbewegung und -insertation wurde eine in-situ
NMR-Testzelle konzipiert, konstruiert, gebaut und getestet. Für den Test kam dabei eine
Lithium-Schwefel-Zelle zum Einsatz, für welche ein Di?usionskoe?zient sowie ein Spektrum
vor und nach einer 90 minütigen Ladezeit aufgenommen worden ist.

Abstract
--------
The all solid state electrolyte ceramics LATP, LAGP, LTO, and LLTO were successfully
synthesized and characterized by using XRD. MAS-NMR spectroscopy were not able to ge-
nerate additional information. All powders were processed to electrode slurries, casted on
aluminum foils and punched to electrode samples. Those samples were studied by SEM and
EDX and then build into battery test cells. The cells were analyzed by measuring the charge
curves as well as cyclic voltammetry. With the charge curves capacities and the amount of
lithium insertion were calculated. The cyclic voltammetry was able to detect non-reactive
voltage regions.

To be able to better understand lithium movement and insertion a novel in-situ NMR sample
cell was designed, constructed, built and tested. Therefore, a lithium-sulfur-cell was built into
the in-situ sample cell. With this setting a diffusion coeffcient as well as a NMR spectrum
before and after 90 minutes of charging were measured.

File: LiNiMnO-LATP-LTO_Spinell_01_OCV_C01.txt
EC-Lab ASCII FILE
Nb header lines : 46

Open Circuit Voltage

Run on channel : 1 (SN 6985)
Grouped channel(s) : 1
User :
CE vs. WE compliance from -10 V to 10 V
Electrode connection : standard
Ewe ctrl range : min = -5,00 V, max = 5,00 V
Acquisition started on : 02.09.2015 13:33:11
Saved on :
	File : LiNiMnO-LATP-LTO_Spinell_01_OCV_C01.mpr
	Directory : C:\Hupfer\Studenten Batterietests\LiNiMnO_LATP_LTO-Spinell\
	Host : 192.168.0.2
Device : VMP3 (SN 0324)
Address : 192.168.0.1
EC-Lab for windows v10.33 (software)
Internet server v10.33 (firmware)
Command interpretor v10.32 (firmware)
Electrode material :
Initial state :
Electrolyte :
Comments :
Mass of active material : 0,001 mg
 at x = 0,000
Molecular weight of active material (at x = 0) : 0,001 g/mol
Atomic weight of intercalated ion : 0,001 g/mol
Acquisition started at : xo = 0,000
Number of e- transfered per intercalated ion : 1
for DX = 1, DQ = 26,801 mA.h
Battery capacity : 0,000 A.h
Electrode surface area : 0,001 cm²
Characteristic mass : 0,001 g
tR (h:m:s)          0:10:0,0000
dER/dt (mV/h)       0,0
dER (mV)            0,00
dtR (s)             5,0000
E range min (V)     -5,000
E range max (V)     5,000

Number of loops : 1
Loop 0 from point number 0 to 120

mode	error	time/s	Ewe/V
3	0	0,0000	0,464883864
3	0	5,0000	0,474832326
3	0	10,0000	0,480140686
3	0	15,0000	0,481057256
3	0	20,0000	0,476245344
3	0	25,0000	0,468397319
3	0	30,0000	0,461542249
3	0	35,0000	0,465857714
3	0	40,0000	0,478212118
3	0	45,0000	0,480197996
3	0	50,0000	0,472540915
3	0	55,0000	0,46429193
3	0	60,0000	0,460549325
3	0	65,0000	0,462382436
3	0	70,0000	0,46394822
3	0	75,0000	0,472961009
3	0	80,0000	0,477257371
3	0	85,0000	0,48130548
3	0	90,0000	0,479739696
3	0	95,0000	0,478135735
3	0	100,0000	0,479319632
3	0	105,0000	0,47588253
3	0	110,0000	0,468893796
3	0	115,0000	0,468511909
3	0	120,0000	0,467805386
3	0	125,0000	0,466640592
3	0	130,0000	0,462076932
3	0	135,0000	0,458678037
3	0	140,0000	0,460644811
3	0	145,0000	0,461847782
3	0	150,0000	0,470707804
3	0	155,0000	0,472693682
3	0	160,0000	0,476321727
3	0	165,0000	0,478059351
3	0	170,0000	0,480178893
3	0	175,0000	0,479300529
3	0	180,0000	0,478536725
3	0	185,0000	0,478823155
3	0	190,0000	0,477792025
3	0	195,0000	0,476493567
3	0	200,0000	0,473285615
3	0	205,0000	0,465284854
3	0	210,0000	0,460835755
3	0	215,0000	0,458849877
3	0	220,0000	0,462210596
3	0	225,0000	0,464444697
3	0	230,0000	0,471662551
3	0	235,0000	0,475386083
3	0	240,0000	0,477028221
3	0	245,0000	0,478574932
3	0	250,0000	0,477486521
3	0	255,0000	0,475405157
3	0	260,0000	0,466125041
3	0	265,0000	0,464158267
3	0	270,0000	0,459651858
3	0	275,0000	0,458143353
3	0	280,0000	0,45818156
3	0	285,0000	0,459308147
3	0	290,0000	0,460167438
3	0	295,0000	0,459766448
3	0	300,0000	0,459480017
3	0	305,0000	0,459480017
3	0	310,0000	0,460148335
3	0	315,0000	0,459269971
3	0	320,0000	0,459480017
3	0	325,0000	0,459613681
3	0	330,0000	0,461007595
3	0	335,0000	0,461981446
3	0	340,0000	0,46366179
3	0	345,0000	0,468320966
3	0	350,0000	0,468397319
3	0	355,0000	0,468645573
3	0	360,0000	0,468702853
3	0	365,0000	0,468855619
3	0	370,0000	0,468015432
3	0	375,0000	0,467614442
3	0	380,0000	0,467366219
3	0	385,0000	0,467786282
3	0	390,0000	0,468072712
3	0	395,0000	0,468263656
3	0	400,0000	0,469065666
3	0	405,0000	0,470841467
3	0	410,0000	0,472598225
3	0	415,0000	0,474202186
3	0	420,0000	0,475672483
3	0	425,0000	0,473381102
3	0	430,0000	0,46371907
3	0	435,0000	0,461045802
3	0	440,0000	0,456940383
3	0	445,0000	0,455431879
3	0	450,0000	0,456673056
3	0	455,0000	0,457513243
3	0	460,0000	0,461026698
3	0	465,0000	0,465074807
3	0	470,0000	0,467213452
3	0	475,0000	0,467690825
3	0	480,0000	0,469103843
3	0	485,0000	0,473056495
3	0	490,0000	0,474087626
3	0	495,0000	0,474202186
3	0	500,0000	0,472961009
3	0	505,0000	0,471471608
3	0	510,0000	0,472197205
3	0	515,0000	0,468435526
3	0	520,0000	0,461427689
3	0	525,0000	0,456863999
3	0	530,0000	0,453006834
3	0	535,0000	0,454973608
3	0	540,0000	0,455718309
3	0	545,0000	0,457704186
3	0	550,0000	0,459136307
3	0	555,0000	0,458945364
3	0	560,0000	0,459747344
3	0	565,0000	0,459518194
3	0	570,0000	0,459250867
3	0	575,0000	0,45766601
3	0	580,0000	0,457093149
3	0	585,0000	0,455985636
3	0	590,0000	0,455355525
3	0	595,0000	0,456405729
3	0	600,0000	0,457589626

File: LiNiMnO-LATP-LTO_Spinell_03_OCV_C01.txt
EC-Lab ASCII FILE
Nb header lines : 46

Open Circuit Voltage

Run on channel : 1 (SN 6985)
Grouped channel(s) : 1
User :
CE vs. WE compliance from -10 V to 10 V
Electrode connection : standard
Ewe ctrl range : min = -5,00 V, max = 5,00 V
Acquisition started on : 02.09.2015 13:33:11
Saved on :
	File : LiNiMnO-LATP-LTO_Spinell_03_OCV_C01.mpr
	Directory : C:\Hupfer\Studenten Batterietests\LiNiMnO_LATP_LTO-Spinell\
	Host : 192.168.0.2
Device : VMP3 (SN 0324)
Address : 192.168.0.1
EC-Lab for windows v10.33 (software)
Internet server v10.33 (firmware)
Command interpretor v10.32 (firmware)
Electrode material :
Initial state :
Electrolyte :
Comments :
Mass of active material : 0,001 mg
 at x = 0,000
Molecular weight of active material (at x = 0) : 0,001 g/mol
Atomic weight of intercalated ion : 0,001 g/mol
Acquisition started at : xo = 0,000
Number of e- transfered per intercalated ion : 1
for DX = 1, DQ = 26,801 mA.h
Battery capacity : 0,000 A.h
Electrode surface area : 0,001 cm²
Characteristic mass : 0,001 g
tR (h:m:s)          0:10:0,0000
dER/dt (mV/h)       0,0
dER (mV)            0,00
dtR (s)             5,0000
E range min (V)     -5,000
E range max (V)     5,000

Number of loops : 1
Loop 0 from point number 0 to 120

mode	error	time/s	Ewe/V
3	0	613,4360	0,471703619
3	0	618,4360	0,471509814
3	0	623,4360	0,470249534
3	0	628,4360	0,47011587
3	0	633,4360	0,471395224
3	0	638,4360	0,472178131
3	0	643,4360	0,46988675
3	0	648,4360	0,467232555
3	0	653,4360	0,465189397
3	0	658,4360	0,464540154
3	0	663,4360	0,46429193
3	0	668,4360	0,463986397
3	0	673,4360	0,464368314
3	0	678,4360	0,465189397
3	0	683,4360	0,468607366
3	0	688,4360	0,47000131
3	0	693,4360	0,469867647
3	0	698,4360	0,471414328
3	0	703,4360	0,471280664
3	0	708,4360	0,470593244
3	0	713,4360	0,470784187
3	0	718,4360	0,470726907
3	0	723,4360	0,47005859
3	0	728,4360	0,467996329
3	0	733,4360	0,465227574
3	0	738,4360	0,464501977
3	0	743,4360	0,458907157
3	0	748,4360	0,457818747
3	0	753,4360	0,453904301
3	0	758,4360	0,45149833
3	0	763,4360	0,451135546
3	0	768,4360	0,45258674
3	0	773,4360	0,455317318
3	0	778,4360	0,461733222
3	0	783,4360	0,461962342
3	0	788,4360	0,460301101
3	0	793,4360	0,455088168
3	0	798,4360	0,455489188
3	0	803,4360	0,455298215
3	0	808,4360	0,454591721
3	0	813,4360	0,461045802
3	0	818,4360	0,461962342
3	0	823,4360	0,462153286
3	0	828,4360	0,461714119
3	0	833,4360	0,453980684
3	0	838,4360	0,451689303
3	0	843,4360	0,448252201
3	0	848,4360	0,450524509
3	0	853,4360	0,451918423
3	0	858,4360	0,451822966
3	0	863,4360	0,450696349
3	0	868,4360	0,449416995
3	0	873,4360	0,448538631
3	0	878,4360	0,450314462
3	0	883,4360	0,45172748
3	0	888,4360	0,451593816
3	0	893,4360	0,453656077
3	0	898,4360	0,460205615
3	0	903,4360	0,461083978
3	0	908,4360	0,461504072
3	0	913,4360	0,461313128
3	0	918,4360	0,461351305
3	0	923,4360	0,461217642
3	0	928,4360	0,461083978
3	0	933,4360	0,460988522
3	0	938,4360	0,460568428
3	0	943,4360	0,460606605
3	0	948,4360	0,460339278
3	0	953,4360	0,459480017
3	0	958,4360	0,454878151
3	0	963,4360	0,453178704
3	0	968,4360	0,452720404
3	0	973,4360	0,448958725
3	0	978,4360	0,448462248
3	0	983,4360	0,447583884
3	0	988,4360	0,447641164
3	0	993,4360	0,449779809
3	0	998,4360	0,454553515
3	0	1003,4360	0,462153286
3	0	1008,4360	0,464941144
3	0	1013,4360	0,466774255
3	0	1018,4360	0,467480779
3	0	1023,4360	0,465418518
3	0	1028,4360	0,465303957
3	0	1033,4360	0,46314624
3	0	1038,4360	0,460625708
3	0	1043,4360	0,459881008
3	0	1048,4360	0,459059924
3	0	1053,4360	0,453503311
3	0	1058,4360	0,449779809
3	0	1063,4360	0,449436098
3	0	1068,4360	0,447316557
3	0	1073,4360	0,44567439
3	0	1078,4360	0,448061258
3	0	1083,4360	0,450238079
3	0	1088,4360	0,454114348
3	0	1093,4360	0,460511148
3	0	1098,4360	0,465093911
3	0	1103,4360	0,465284854
3	0	1108,4360	0,460339278
3	0	1113,4360	0,458028793
3	0	1118,4360	0,4516702
3	0	1123,4360	0,447545707
3	0	1128,4360	0,444929689
3	0	1133,4360	0,447392941
3	0	1138,4360	0,451765656
3	0	1143,4360	0,453675151
3	0	1148,4360	0,460148335
3	0	1153,4360	0,464100987
3	0	1158,4360	0,463814557
3	0	1163,4360	0,457971513
3	0	1168,4360	0,448767781
3	0	1173,4360	0,445559829
3	0	1178,4360	0,446113586
3	0	1183,4360	0,451211929
3	0	1188,4360	0,454133451
3	0	1193,4360	0,462668866
3	0	1198,4360	0,464712024
3	0	1203,4360	0,463356286
3	0	1208,4360	0,45869711
3	0	1213,4360	0,456787616

File: LiNiMnO-LATP-LTO_Spinell_04_GCPL_C01.txt
EC-Lab ASCII FILE
Nb header lines : 71

Galvanostatic Cycling with Potential Limitation

Run on channel : 1 (SN 6985)
Grouped channel(s) : 1
User :
CE vs. WE compliance from -10 V to 10 V
Electrode connection : standard
Ewe ctrl range : min = -5,00 V, max = 5,00 V
Acquisition started on : 02.09.2015 13:33:11
Saved on :
	File : LiNiMnO-LATP-LTO_Spinell_04_GCPL_C01.mpr
	Directory : C:\Hupfer\Studenten Batterietests\LiNiMnO_LATP_LTO-Spinell\
	Host : 192.168.0.2
Device : VMP3 (SN 0324)
Address : 192.168.0.1
EC-Lab for windows v10.33 (software)
Internet server v10.33 (firmware)
Command interpretor v10.32 (firmware)
Electrode material :
Initial state :
Electrolyte :
Comments :
Mass of active material : 0,001 mg
 at x = 0,000
Molecular weight of active material (at x = 0) : 0,001 g/mol
Atomic weight of intercalated ion : 0,001 g/mol
Acquisition started at : xo = 0,000
Number of e- transfered per intercalated ion : 1
for DX = 1, DQ = 26,801 mA.h
Battery capacity : 0,000 A.h
Electrode surface area : 0,001 cm²
Characteristic mass : 0,001 g
Ns                  0                   1
Set I/C             I                   I
Is                  0,000               500,000
unit Is             mA                  nA
vs.                 <None>              <None>
N                   1                   1
I sign              > 0                 > 0
t1 (h:m:s)          0:00:0,0000         10:00:0,0000
I Range             1 mA                1 mA
Bandwidth           5                   5
dE1 (mV)            0,00                0,00
dt1 (s)             0,0000              10,0000
EM (V)              0,000               3,000
tM (h:m:s)          0:00:0,0000         0:00:0,0000
Im                  0,000               0,000
unit Im             mA                  mA
E range min (V)     -5,000              -5,000
E range max (V)     5,000               5,000
dq                  0,000               1,000
unit dq             mA.h                mA.h
dtq (s)             0,0000              120,0000
dQM                 0,000               0,000
unit dQM            mA.h                mA.h
dxM                 0,000               0,000
tR (h:m:s)          0:00:0,0000         0:00:0,0000
dER/dt (mV/h)       0,0                 0,1
dER (mV)            0,00                5,00
dtR (s)             1,0000              120,0000
EL (V)              pass                4,200
goto Ns'            0                   0
nc cycles           0                   0

Number of loops : 1
Loop 0 from point number 0 to 3600

mode	ox/red	error	control changes	Ns changes	counter inc.	Ns	time/s	control/V/mA	Ewe/V	dq/mA.h	<I>/mA	P/W	(Q-Qo)/mA.h	x	Capacity/mA.h
1	1	0	1	1	0	1	1213,4370	0,000500000024	0,450066209	0	0	0	0	0	0
1	1	0	1	0	0	1	1873,4370	0,000500000024	1,45932758	1,8998450264043642E-006	0,00068394422678345549	9,98098699E-007	0,00012520800309761643	-4,6716789395226554E-006	0,00012520800309761643
1	1	0	1	0	0	1	2533,4369	0,000500000024	1,58430374	1,8960328307940573E-006	0,00068257183632907558	1,08140114E-006	0,00025030526920086416	-9,339226132897943E-006	0,00025030526920086416
1	1	0	1	0	0	1	3193,4369	0,000500000024	1,61592484	1,8959632287668582E-006	0,00068254677959865101	1,10294434E-006	0,00037512004737432941	-1,3996233321803984E-005	0,00037512004737432941
1	1	0	1	0	0	1	3853,4369	0,000500000024	1,62300909	1,8919394016298208E-006	0,0006810982017927232	1,10542862E-006	0,00049989792179750413	-1,8651863582169062E-005	0,00049989792179750413
1	1	0	1	0	0	1	4513,4369	0,000500000024	1,62573969	1,8865366121430675E-006	0,00067915318859414323	1,10412634E-006	0,00062452209408101555	-2,3301759009048586E-005	0,00062452209408101555
1	1	0	1	0	0	1	5173,4369	0,000500000024	1,63547802	1,8833875772090528E-006	0,00067801953600417254	1,10888607E-006	0,00074899051150280755	-2,7945843012622714E-005	0,00074899051150280755
1	1	0	1	0	0	1	5833,4369	0,000500000024	1,63797951	1,8868383382699296E-006	0,00067926181000112896	1,11261693E-006	0,0008734392531924585	-3,2589192888176352E-005	0,0008734392531924585
1	1	0	1	0	0	1	6493,4369	0,000500000024	1,64210403	1,8878360804745978E-006	0,00067962099719915802	1,11600843E-006	0,0009980582615262048	-3,7238895641147136E-005	0,0009980582615262048
1	1	0	1	0	0	1	7153,4369	0,000500000024	1,6483289	1,8728748906287366E-006	0,00067423496878943834	1,11136103E-006	0,0011225730089586578	-4,1884708279710387E-005	0,0011225730089586578
1	1	0	1	0	0	1	7813,4369	0,000500000024	1,6554513	1,8841842871075238E-006	0,00067830635157109478	1,12290309E-006	0,0012468748200117355	-4,6522575975663149E-005	0,0012468748200117355
1	1	0	1	0	0	1	8473,4368	0,000500000024	1,6606642	1,8867828683061008E-006	0,00067924184081390861	1,12799262E-006	0,0013714599920146202	-5,1171016249636045E-005	0,0013714599920146202
1	1	0	1	0	0	1	9133,4368	0,000500000024	1,666641	1,8871722144605075E-006	0,00067938200543119206	1,13228589E-006	0,0014959475491997978	-5,581581438351577E-005	0,0014959475491997978
1	1	0	1	0	0	1	9793,4368	0,000500000024	1,66587722	1,881861638762833E-006	0,00067747019815688256	1,1285822E-006	0,0016205724673206557	-6,0465737638589478E-005	0,0016205724673206557
1	1	0	1	0	0	1	10453,4368	0,000500000024	1,67133832	1,8909299996481018E-006	0,00068073480811510464	1,1377382E-006	0,0017451222943703232	-6,5112859144836058E-005	0,0017451222943703232
1	1	0	1	0	0	1	11113,4368	0,000500000024	1,67282772	1,8883190524098205E-006	0,00067979486709794342	1,13717965E-006	0,0018698937212765446	-6,9768248839674829E-005	0,0018698937212765446
1	1	0	1	0	0	1	11773,4368	0,000500000024	1,68365455	1,8846782117098982E-006	0,0006784841644301024	1,14233296E-006	0,0019941836071217094	-7,4405671590086733E-005	0,0019941836071217094
1	1	0	1	0	0	1	12433,4368	0,000500000024	1,68443739	1,8874647533844432E-006	0,00067948731944508403	1,14455383E-006	0,0021185269255300445	-7,9045087981271373E-005	0,0021185269255300445
1	1	0	1	0	0	1	13093,4368	0,000500000024	1,68502939	1,8888977714846586E-006	0,00068000320596740736	1,14582542E-006	0,0022431982142935341	-8,3696741387367654E-005	0,0022431982142935341
1	1	0	1	0	0	1	13753,4368	0,000500000024	1,6898222	1,8883953673454624E-006	0,00067982234047510694	1,14877889E-006	0,0023676361090669293	-8,8339686549891968E-005	0,0023676361090669293
1	1	0	1	0	0	1	14413,4368	0,000500000024	1,68691981	1,8887129913297638E-006	0,00067993668511083994	1,14699867E-006	0,0024921624082592317	-9,2985930200146701E-005	0,0024921624082592317
1	1	0	1	0	0	1	15073,4368	0,000500000024	1,68949759	1,8759423129797344E-006	0,00067533924084916723	1,14098407E-006	0,0026161702707755674	-9,7612830280975616E-005	0,0026161702707755674
1	1	0	1	0	0	1	15733,4368	0,000500000024	1,69388938	1,884292752000167E-006	0,00067834539893291904	1,14904208E-006	0,0027401501555201917	-0,00010223868647352544	0,0027401501555201917
1	1	0	1	0	0	1	16393,4367	0,000500000024	1,69505417	1,8850866359555059E-006	0,00067863119716128883	1,15031662E-006	0,0028643206306093882	-0,0001068716538480827	0,0028643206306093882
1	1	0	1	0	0	1	17053,4367	0,000500000024	1,69509232	1,8910469458399648E-006	0,00068077690874468506	1,15397972E-006	0,002988815895567465	-0,00011151673956933251	0,002988815895567465
1	1	0	1	0	0	1	17713,4367	0,000500000024	1,69925511	1,8944083193653366E-006	0,00068198700322846976	1,15886985E-006	0,0031136515825191123	-0,00011617452689286469	0,0031136515825191123
[...]
1	1	0	1	0	0	1	24973,4366	0,000500000024	1,71191502	1,8959243647437283E-006	0,00068253277957129869	1,16843808E-006	0,0044879419689820902	-0,00016745114896487478	0,0044879419689820902
1	1	0	1	0	0	1	25633,4366	0,000500000024	1,72050774	1,8854830476532998E-006	0,00067877390537323507	1,16783576E-006	0,00461277064735952	-0,00017210867478907974	0,00461277064735952
1	1	0	1	0	0	1	26293,4366	0,000500000024	1,71920919	1,8935575532798086E-006	0,00068168072743397158	1,17195179E-006	0,0047374918543283424	-0,00017676219071053274	0,0047374918543283424
1	1	0	1	0	0	1	26953,4366	0,000500000024	1,71833086	1,8981067500264749E-006	0,00068331843828259942	1,17416721E-006	0,0048625380348872019	-0,00018142783183356166	0,0048625380348872019
1	1	0	1	0	0	1	27613,4366	0,000500000024	1,72043133	1,8941899751015523E-006	0,00068190839929255578	1,17317654E-006	0,0049875688942365107	-0,00018609290130166266	0,0049875688942365107
1	1	0	1	0	0	1	28273,4366	0,000500000024	1,72528148	1,8933494548190438E-006	0,00068160581198718912	1,17596187E-006	0,0051124582222069453	-0,00019075269004372685	0,0051124582222069453
1	1	0	1	0	0	1	28933,4366	0,000500000024	1,72535777	1,8969931224742646E-006	0,00068291753235895002	1,1782771E-006	0,0052376365516966464	-0,0001954232618210416	0,0052376365516966464
1	1	0	1	0	0	1	29593,4366	0,000500000024	1,7253387	1,8967995094491117E-006	0,00068284783166905101	1,17814375E-006	0,0053625507984995968	-0,00020008398031825078	0,0053625507984995968
1	1	0	1	0	0	1	30253,4366	0,000500000024	1,721367	1,8901774542496749E-006	0,00068046389176839091	1,17132811E-006	0,0054876917493943552	-0,00020475315744993213	0,0054876917493943552
1	1	0	1	0	0	1	30913,4366	0,000500000024	1,72547233	1,8925463853358653E-006	0,00068131670696974477	1,17559307E-006	0,0056124632186935251	-0,0002094085487265088	0,0056124632186935251
1	1	0	1	0	0	1	31573,4366	0,000500000024	1,73236561	1,9035031793593792E-006	0,00068526115286596595	1,18712285E-006	0,005737725339462832	-0,00021408224686912422	0,005737725339462832
1	1	0	1	0	0	1	32233,4366	0,000500000024	1,72530055	1,8886907326393862E-006	0,00067992867198220723	1,17308127E-006	0,0058628738190027392	-0,00021875170490467846	0,0058628738190027392
1	1	0	1	0	0	1	32893,4366	0,000500000024	1,73305309	1,8894015893488864E-006	0,00068018457089865664	1,17879597E-006	0,0059879141911798989	-0,0002234171293091767	0,0059879141911798989
1	1	0	1	0	0	1	33553,4366	0,000500000024	1,73775041	1,8999315870266096E-006	0,00068397537005557594	1,18857849E-006	0,00611286807032144	-0,0002280793265422249	0,00611286807032144
1	1	0	1	0	0	1	34213,4366	0,000500000024	1,72921503	1,8957911686092202E-006	0,00068248481942809216	1,18016305E-006	0,0062377532691809459	-0,00023273896122160874	0,0062377532691809459
1	1	0	1	0	0	1	34873,4366	0,000500000024	1,72596884	1,8955604577947974E-006	0,00068240176353505472	1,17780417E-006	0,0063630020882488128	-0,00023741216305985914	0,0063630020882488128
1	1	0	1	0	0	1	35533,4366	0,000500000024	1,7363565	1,8931876402412957E-006	0,00068154754921738509	1,18340949E-006	0,0064882299586166464	-0,00024208458327394541	0,0064882299586166464
1	1	0	1	0	0	1	36193,4366	0,000500000024	1,72822201	1,8906844510767971E-006	0,00068064640111984422	1,17630805E-006	0,0066130956834841485	-0,00024674349135250454	0,0066130956834841485
1	1	0	1	0	0	1	36853,4366	0,000500000024	1,72803104	1,8807967678197504E-006	0,00067708683515393766	1,17002708E-006	0,0067379188400052723	-0,00025140081114882653	0,0067379188400052723
1	1	0	1	0	0	1	37213,4366	0,000500000024	1,73423696	1,8961511889000477E-006	0,00068261442673254874	1,18381513E-006	0,0068059190806391859	-0,0002539379915541737	0,0068059190806391859