Folder: thesis/Experimentelles/Ausgewaehlte_Daten/LAGP/CV

Note: README.md
# thesis

Zusammenfassung
---------------
Es konnten die Festkörperelektrolytkeramiken LATP, LAGP, LTO und LLTO hergestellt,
mit XRD und MAS-NMR charakterisiert und zu Elektrodensuspensionen weiterverarbeitet
werden. Aus den Daten der MAS-NMR konnten dabei gegenüber der XRD keine Mehrinfor-
mationen gewonnen werden. Die mit den Suspensionen gegossenen und gestanzten Elektro-
denproben wurden mittels REM und EDX untersucht und als Kathode in Testzellen verbaut.
Mit diesen wurden Ladekennlinien erstellt und eine zyklischer Voltametrie durchgeführt. Aus
den Ladekennlinien konnten die Kapazitäten und der Grad der Lithiuminsertation in die
Materialen bestimmt werden. Die zyklische Voltametrie lieferte nicht-reaktive Spannungsbe-
reiche der Materialien.

Für ein noch besseres Verständnis der Lithiumbewegung und -insertation wurde eine in-situ
NMR-Testzelle konzipiert, konstruiert, gebaut und getestet. Für den Test kam dabei eine
Lithium-Schwefel-Zelle zum Einsatz, für welche ein Di?usionskoe?zient sowie ein Spektrum
vor und nach einer 90 minütigen Ladezeit aufgenommen worden ist.

Abstract
--------
The all solid state electrolyte ceramics LATP, LAGP, LTO, and LLTO were successfully
synthesized and characterized by using XRD. MAS-NMR spectroscopy were not able to ge-
nerate additional information. All powders were processed to electrode slurries, casted on
aluminum foils and punched to electrode samples. Those samples were studied by SEM and
EDX and then build into battery test cells. The cells were analyzed by measuring the charge
curves as well as cyclic voltammetry. With the charge curves capacities and the amount of
lithium insertion were calculated. The cyclic voltammetry was able to detect non-reactive
voltage regions.

To be able to better understand lithium movement and insertion a novel in-situ NMR sample
cell was designed, constructed, built and tested. Therefore, a lithium-sulfur-cell was built into
the in-situ sample cell. With this setting a diffusion coeffcient as well as a NMR spectrum
before and after 90 minutes of charging were measured.

File: LAGP_Korrosion_02_CV_C02.txt
EC-Lab ASCII FILE
Nb header lines : 64

Cyclic Voltammetry

Run on channel : 2 (SN 6986)
Grouped channel(s) : 2
User :
CE vs. WE compliance from -10 V to 10 V
Electrode connection : standard
Ewe ctrl range : min = 0,00 V, max = 5,00 V
Acquisition started on : 08.27.2015 14:25:34
Saved on :
	File : LAGP_Korrosion_02_CV_C02.mpr
	Directory : C:\Gielisch\NeueZelle\LiS-Test\Paul\
	Host : 192.168.0.2
Device : VMP3 (SN 0324)
Address : 192.168.0.1
EC-Lab for windows v10.33 (software)
Internet server v10.33 (firmware)
Command interpretor v10.32 (firmware)
Electrode material :
Initial state :
Electrolyte :
Comments :
Mass of active material : 0,001 mg
 at x = 0,000
Molecular weight of active material (at x = 0) : 0,001 g/mol
Atomic weight of intercalated ion : 0,001 g/mol
Acquisition started at : xo = 0,000
Number of e- transfered per intercalated ion : 1
for DX = 1, DQ = 26,801 mA.h
Battery capacity : 0,000 A.h
Electrode surface area : 0,001 cm²
Characteristic mass : 0,001 g
Ei (V)              0,000
vs.                 Eoc
dE/dt               10,000
dE/dt unit          mV/s
E1 (V)              4,000
vs.                 Ref
Step percent        50
N                   10
E range min (V)     0,000
E range max (V)     5,000
I Range             Auto
Bandwidth           5
E2 (V)              1,200
vs.                 Ref
nc cycles           0
Reverse Scan        1
Ef (V)              0,000
vs.                 Eoc

Number of loops : 7
Loop 0 from point number 0 to 5600
Loop 1 from point number 5601 to 11202
Loop 2 from point number 11203 to 16804
Loop 3 from point number 16805 to 22406
Loop 4 from point number 22407 to 28007
Loop 5 from point number 28008 to 33609
Loop 6 from point number 33610 to 39210

mode	ox/red	error	control changes	counter inc.	time/s	control/V	Ewe/V	<I>/mA	cycle number	(Q-Qo)/C	P/W
2	1	1	0	0	0,0508	2,99561048	2,99594879	-0,0041857114993035795	1	0	1,25401775E-005
2	1	0	0	0	37,3534	3,36863637	3,36885262	0,021122896759253411	1	0,000708130538	7,11599278E-005
2	1	0	0	0	74,6610	3,74171233	3,74191308	0,033064902354790758	1	0,0016983723	0,000123725986
2	0	0	1	0	111,9292	3,88564205	3,88575101	-0,019334260648099149	1	0,00255980273	7,51281259E-005
2	0	0	1	0	149,2368	3,51256561	3,51287341	-0,020725205788578614	1	0,00175236084	7,28050218E-005
2	0	0	0	0	186,5446	3,1394887	3,13975906	-0,020696619081190109	1	0,000970392313	6,49823996E-005
2	0	0	0	0	223,8522	2,76641226	2,76661444	-0,02372369300617183	1	0,000149528219	6,56343109E-005
2	0	0	0	0	261,1598	2,39333582	2,39364266	-0,039246581645716966	1	-0,0010150111	9,39422898E-005
2	0	0	1	0	298,4676	2,02025938	2,02068424	-0,056835299081823942	1	-0,00282467389	0,000114846196
2	0	0	1	0	335,7752	1,6471827	1,64765954	-0,075103222263148915	1	-0,00531569077	0,000123744539
2	0	0	1	0	373,1228	1,27370596	1,27405155	-0,14712381830300947	1	-0,00900373515	0,000187443322
2	1	0	1	1	410,3712	1,49885237	1,49925518	0,018230797703533178	1	-0,0109911785	2,73326186E-005
2	1	0	1	1	447,6788	1,87192881	1,87238669	0,030022200554850886	1	-0,0100119207	5,62131681E-005
2	1	0	1	1	484,9864	2,24500537	2,24535847	0,031578651560401293	1	-0,00883934274	7,09053929E-005
2	1	0	0	1	522,2942	2,61808181	2,61819196	0,034832891055244832	1	-0,0075969426	9,11991956E-005
2	1	0	0	1	559,6018	2,99115872	2,99146605	0,044888457943064397	1	-0,00610958552	0,000134282294
2	1	0	1	0	596,8592	3,36283445	3,36337185	0,041761989601784122	2	0,00167796807	0,000140461096
2	1	0	0	0	634,1670	3,73591113	3,73644614	0,044664965731229914	2	0,00327182515	0,000166888232
2	0	0	0	0	671,4150	3,89164329	3,89208245	-0,016034541058750739	2	0,00449485937	6,24077584E-005
2	0	0	1	0	708,7228	3,51856685	3,51909304	-0,021697057693489619	2	0,00371600315	7,63539647E-005
2	0	0	1	0	746,0304	3,14549017	3,14601493	-0,022346472913071734	2	0,00289582647	7,03023397E-005
2	0	0	1	0	783,3380	2,77241373	2,77307463	-0,023606867814022547	2	0,00203215354	6,54636096E-005
2	0	0	0	0	820,6458	2,39933705	2,39977384	-0,027504249799272186	2	0,00108194235	6,60039805E-005
2	0	0	0	0	857,9534	2,02626061	2,02684712	-0,03742156812869424	2	-0,000150309745	7,58477981E-005
2	0	0	0	0	895,2611	1,65318298	1,65369165	-0,055270257538201139	2	-0,0018769264	9,13999611E-005
2	0	0	1	0	932,6088	1,27970731	1,28016055	-0,11596403603821414	2	-0,00469938619	0,000148452586
2	1	0	0	1	969,8570	1,49285102	1,49341869	0,02124897726052616	2	-0,00627198676	3,17336198E-005
2	1	0	0	1	1007,1646	1,86592758	1,86655486	0,031277217169257741	2	-0,00522490684	5,83806432E-005
2	1	0	1	1	1044,4724	2,23900437	2,23954439	0,032203640594767949	2	-0,0040158811	7,21214819E-005
2	1	0	1	1	1081,7800	2,61208081	2,61244011	0,034356228619193184	2	-0,00276595657	8,97535865E-005
2	1	0	0	1	1119,0878	2,98515749	2,98568416	0,043252822459356966	2	-0,00132087537	0,000129139269
2	1	0	1	0	1156,2568	3,35573316	3,35638499	0,040135983511357126	3	0,00160934392	0,000134711809
2	1	0	1	0	1193,5644	3,7288096	3,72940969	0,041697509996420525	3	0,00311036198	0,000155507092
2	0	0	0	0	1230,8226	3,89864445	3,89919853	-0,01609141031077152	3	0,00430327235	6,2743602E-005
2	0	0	0	0	1268,1302	3,52556849	3,52605414	-0,021393714330366048	3	0,0035241649	7,54353969E-005
2	0	0	0	0	1305,4378	3,15249133	3,15303349	-0,021857072745829376	3	0,00271121389	6,89160806E-005
2	0	0	1	0	1342,7456	2,77941489	2,7799511	-0,023045904194522182	3	0,00186262	6,40664875E-005
2	0	0	1	0	1380,0532	2,40633845	2,40684128	-0,026210789642020838	3	0,000937848003	6,30852082E-005
2	0	0	1	0	1417,3608	2,03326178	2,03390098	-0,035594124743645901	3	-0,000237367916	7,2394927E-005
2	0	0	0	0	1454,6686	1,66018522	1,66078711	-0,051551018858811526	3	-0,00186002092	8,56152692E-005
2	0	0	0	0	1492,0162	1,28670859	1,28713453	-0,10475027162788653	3	-0,00445571402	0,000134827686
2	1	0	1	1	1529,2644	1,48584962	1,48647583	0,021604469513813786	3	-0,00594639126	3,21145199E-005
2	1	0	0	1	1566,5722	1,85892606	1,85946083	0,031273604090394534	3	-0,00489186076	5,81520435E-005
2	1	0	0	1	1603,8798	2,23200274	2,23261905	0,032353104161167654	3	-0,00367965992	7,22321565E-005
2	1	0	0	1	1641,1875	2,60507965	2,60558605	0,034401700232763898	3	-0,00242864178	8,96365891E-005
2	1	0	1	1	1678,4952	2,97815609	2,97852659	0,04277329408149744	3	-0,000997619354	0,000127401392
2	1	0	0	0	1715,6542	3,34893179	3,34944129	0,039537007605691565	4	0,00156397477	0,000132426881
2	1	0	0	0	1752,9618	3,72200847	3,72267151	0,040198512634055437	4	0,00302320672	0,000149645857
2	0	0	1	0	1790,2000	3,90564609	3,9059732	-0,016067810654122883	4	0,00421230681	6,27604386E-005
2	0	0	1	0	1827,5076	3,53256941	3,53296137	-0,021415842140817875	4	0,00343309506	7,56613445E-005
2	0	0	0	0	1864,8154	3,15949225	3,16006947	-0,02165085824078257	4	0,00262382836	6,8418216E-005
2	0	0	0	0	1902,1230	2,78641653	2,7869606	-0,02282136028063375	4	0,00178134849	6,36022305E-005
2	0	0	0	0	1939,4306	2,41333985	2,41382885	-0,02588645833182257	4	0,000866135699	6,24854802E-005
2	0	0	1	0	1976,7384	2,04026341	2,0407548	-0,034711432453520762	4	-0,000284890324	7,08375228E-005
2	0	0	1	0	2014,0459	1,66718662	1,66767204	-0,049567276741274144	4	-0,00185432064	8,2661958E-005
2	0	0	1	0	2051,3535	1,29411018	1,29462492	-0,097913105351229658	4	-0,00432014745	0,000126760744
2	1	0	1	1	2088,6419	1,47884798	1,47953296	0,021487265648492778	4	-0,0058064498	3,17911181E-005
2	1	0	1	1	2125,9495	1,85192466	1,85250008	0,031266254101258995	4	-0,00475150207	5,79207372E-005
[...]
2	0	0	0	0	2573,4875	1,67318797	1,67380488	-0,048183732924775846	5	-0,0018303456	8,06501703E-005
2	0	0	1	0	2610,7953	1,30011141	1,30061996	-0,092987061322977178	5	-0,00420528045	0,000120940829
2	1	0	0	1	2648,0835	1,47284687	1,4734714	0,021591810811380006	5	-0,00568751805	3,18149141E-005
2	1	0	0	1	2685,3911	1,8459233	1,84653616	0,031115516856381683	5	-0,00463505089	5,74559272E-005
2	1	0	1	1	2722,6989	2,2190001	2,21966791	0,032342768808895667	5	-0,00342503679	7,17902076E-005
2	1	0	1	1	2760,0065	2,59207654	2,59262633	0,034180637914687565	5	-0,00217784522	8,86176203E-005
2	1	0	1	1	2797,3142	2,96515393	2,96574521	0,041900128306450944	5	-0,000765731791	0,000124265105
2	1	0	1	0	2834,5615	3,3370297	3,33755875	0,039159317643174707	6	0,00149153708	0,000130696528
2	1	0	1	0	2871,8691	3,71010566	3,71076679	0,038322438391063475	6	0,00290526985	0,000142205638
2	0	0	0	0	2909,0973	3,91764855	3,9181807	-0,015545876162057632	6	0,00410495326	6,09115523E-005
2	0	0	0	0	2946,4049	3,54457235	3,54513359	-0,021289764181279619	6	0,0033290151	7,54750581E-005
2	0	0	0	0	2983,7125	3,1714952	3,17198873	-0,021473575437320701	6	0,00252520246	6,81139427E-005
2	0	0	1	0	3021,0203	2,79841924	2,79887033	-0,022669535423456538	6	0,00169035129	6,34490934E-005
2	0	0	1	0	3058,3279	2,42534232	2,42577863	-0,025583486240874698	6	0,000785849814	6,2059873E-005
2	0	0	1	0	3095,6356	2,05226612	2,05295873	-0,033857174570130458	6	-0,000336046971	6,95073832E-005
2	0	0	0	0	3132,9433	1,67918921	1,67970192	-0,046991244454316128	6	-0,00183795113	7,89312835E-005
2	0	0	0	0	3170,2509	1,30611265	1,30652583	-0,08900367841124512	6	-0,00414298056	0,000116285606
2	1	0	1	1	3207,5391	1,46684563	1,4675076	0,021691260921889514	6	-0,00564153399	3,1832089E-005
2	1	0	0	1	3244,8469	1,83992219	1,84062159	0,031088249555236979	6	-0,0045909374	5,72217032E-005
2	1	0	0	1	3282,1545	2,21299887	2,21358848	0,032372169084502042	6	-0,00338297314	7,16586583E-005
2	1	0	0	1	3319,4621	2,58607531	2,58663583	0,033965378348646381	6	-0,00213795644	8,78560677E-005
2	1	0	1	1	3356,7699	2,95915198	2,95958519	0,04148783583056048	6	-0,000733190507	0,000122786791
2	1	0	0	0	3393,9651	3,3305285	3,33094501	0,039058844507154355	7	0,00145595509	0,000130102868
2	1	0	0	0	3431,2727	3,70360494	3,70419693	0,037650949472595782	7	0,00285576191	0,000139466531
2	0	0	1	0	3468,5509	3,92365003	3,92422938	-0,015209399206839856	7	0,00406988058	5,96851714E-005
2	0	0	1	0	3505,8585	3,55057335	3,55111957	-0,021439082932590224	7	0,00329604605	7,61327465E-005
2	0	0	0	0	3543,1663	3,17749691	3,17805004	-0,021106084422811978	7	0,00249408628	6,70761947E-005
2	0	0	0	0	3580,4739	2,80441999	2,80486512	-0,022671436056650006	7	0,00166220672	6,35903198E-005
2	0	0	0	0	3617,7816	2,43134427	2,43184519	-0,025142160409903914	7	0,000761276635	6,11418436E-005
2	0	0	1	0	3655,0893	2,05826712	2,05890012	-0,033475275957715309	7	-0,000350353104	6,89222506E-005
2	0	0	1	0	3692,3969	1,68519044	1,68578148	-0,046101430224047891	7	-0,0018281932	7,77169407E-005
2	0	0	0	0	3729,7047	1,312114	1,31260967	-0,085679081639412403	7	-0,00407638401	0,000112463189
2	1	0	1	1	3766,9929	1,4608444	1,46148586	0,021523890656815786	7	-0,00560160447	3,14568606E-005
2	1	0	1	1	3804,3005	1,83392107	1,83454192	0,030968635110184608	7	-0,00455414923	5,681326E-005
2	1	0	1	1	3841,6082	2,20699811	2,2075057	0,032305835629535482	7	-0,00334831327	7,13153131E-005
2	1	0	0	1	3878,9159	2,58007431	2,58060956	0,034078720909612288	7	-0,00210439553	8,7943874E-005
2	1	0	0	1	3916,2235	2,95315051	2,95367432	0,041174427468191885	7	-0,000707120402	0,000121615849
2	1	0	1	1	3920,6647	2,99761081	2,99817228	0,043145365153367642	7	-0,000519722176	0,000129357242

File: LAGP_Korrosion_08_CV_C02.txt
EC-Lab ASCII FILE
Nb header lines : 67

Cyclic Voltammetry

Run on channel : 2 (SN 6986)
Grouped channel(s) : 2
User :
CE vs. WE compliance from -10 V to 10 V
Electrode connection : standard
Ewe ctrl range : min = 0,00 V, max = 5,00 V
Acquisition started on : 08.27.2015 14:25:34
Saved on :
	File : LAGP_Korrosion_08_CV_C02.mpr
	Directory : C:\Gielisch\NeueZelle\LiS-Test\Paul\
	Host : 192.168.0.2
Device : VMP3 (SN 0324)
Address : 192.168.0.1
EC-Lab for windows v10.33 (software)
Internet server v10.33 (firmware)
Command interpretor v10.32 (firmware)
Electrode material :
Initial state :
Electrolyte :
Comments :
Mass of active material : 0,001 mg
 at x = 0,000
Molecular weight of active material (at x = 0) : 0,001 g/mol
Atomic weight of intercalated ion : 0,001 g/mol
Acquisition started at : xo = 0,000
Number of e- transfered per intercalated ion : 1
for DX = 1, DQ = 26,801 mA.h
Battery capacity : 0,000 A.h
Electrode surface area : 0,001 cm²
Characteristic mass : 0,001 g
Ei (V)              0,000
vs.                 Eoc
dE/dt               10,000
dE/dt unit          mV/s
E1 (V)              4,000
vs.                 Ref
Step percent        50
N                   10
E range min (V)     0,000
E range max (V)     5,000
I Range             Auto
Bandwidth           5
E2 (V)              1,200
vs.                 Ref
nc cycles           0
Reverse Scan        1
Ef (V)              0,000
vs.                 Eoc

Modify on : 08.27.2015 17:18
E2 (V)              0,500

Number of loops : 7
Loop 0 from point number 0 to 5601
Loop 1 from point number 5602 to 11203
Loop 2 from point number 11204 to 16804
Loop 3 from point number 16805 to 22406
Loop 4 from point number 22407 to 28007
Loop 5 from point number 28008 to 33608
Loop 6 from point number 33609 to 40608

mode	ox/red	error	control changes	counter inc.	time/s	control/V	Ewe/V	<I>/mA	cycle number	(Q-Qo)/C	P/W
2	1	0	0	0	6929,0153	1,5094049	1,50994015	0,0091616204008460045	1	0	1,38334981E-005
2	1	0	1	0	6967,7181	1,89643407	1,89708662	0,022658441502480224	1	0,000766232202	4,29850261E-005
2	1	0	1	0	7006,4261	2,28351331	2,28415275	0,023568761748417043	1	0,00167978089	5,38346503E-005
2	1	0	1	0	7045,1341	2,67059302	2,67122412	0,026449812032903251	1	0,0026478013	7,06533756E-005
2	1	0	1	0	7083,8421	3,05767226	3,05828595	0,035691498998656032	1	0,00384779926	0,000109154811
2	1	0	1	0	7122,5501	3,44475245	3,44547367	0,031373604179969485	1	0,00521943951	0,00010809693
2	1	0	0	0	7161,2579	3,83183169	3,83253908	0,034678049251885638	1	0,00648256531	0,000132904985
2	0	0	1	0	7199,9165	3,78162146	3,78242135	-0,021681064340992982	1	0,00674020266	8,20069181E-005
2	0	0	0	0	7238,6244	3,3945415	3,39519405	-0,020953314906840435	1	0,00589813804	7,11405737E-005
2	0	0	0	0	7277,3323	3,00746202	3,00809669	-0,021950300060712858	1	0,00505520077	6,60286241E-005
2	0	0	0	0	7316,0403	2,62038279	2,62102127	-0,023147013103072038	1	0,00416719774	6,06688154E-005
2	0	0	0	0	7354,7483	2,23330331	2,23399043	-0,029079037395098982	1	0,0031730975	6,49622889E-005
2	0	0	0	0	7393,4563	1,84622359	1,84675026	-0,038077011540600947	1	0,00187350891	7,03187325E-005
2	0	0	1	0	7432,1642	1,45914447	1,45974195	-0,054057619704535206	1	0,000118450058	7,89101759E-005
2	1	0	0	1	7470,8127	1,32741725	1,32822299	0,0042833601587012224	1	-0,00266357488	5,68925725E-006
2	1	0	0	0	7509,4115	1,71279633	1,71334445	0,028657523928106723	2	0,000550516183	4,91002102E-005
2	1	0	0	0	7548,1195	2,09987569	2,10051775	0,030714778790112365	2	0,00173682685	6,45169348E-005
2	1	0	0	0	7586,8275	2,4869554	2,48770905	0,032380391546111219	2	0,00297237816	8,05529926E-005
2	1	0	0	0	7625,5355	2,87403464	2,87474418	0,038251043478440992	2	0,00433259457	0,000109961962
2	1	0	0	0	7664,2435	3,26111412	3,2616992	0,041087461040458906	2	0,00597752305	0,000134014932
2	1	0	0	0	7702,9515	3,64819431	3,64886022	0,034847282796686086	2	0,00739676133	0,00012715286
2	0	0	0	0	7741,5699	3,9656589	3,96635008	-0,011622328768242819	2	0,00875925552	4,60982228E-005
2	0	0	0	0	7780,2779	3,57857919	3,5792079	-0,021081724984536838	2	0,00797130261	7,54558787E-005
2	0	0	1	0	7818,9858	3,19149852	3,19201565	-0,021030884516870768	2	0,00714687211	6,71309099E-005
2	0	0	1	0	7857,6937	2,80442047	2,80512834	-0,022742632944654326	2	0,00627971813	6,37960038E-005
2	0	0	1	0	7896,4017	2,41734099	2,41799045	-0,025133750875721894	2	0,00534877786	6,07731708E-005
2	0	0	1	0	7935,1097	2,03026152	2,03101754	-0,033177696957459981	2	0,00419932045	6,73844843E-005
2	0	0	1	0	7973,8177	1,64318204	1,64358616	-0,044907698390522445	2	0,00269190595	7,38096714E-005
2	0	0	0	0	8012,5656	1,25570166	1,25630021	-0,1053792692971165	2	0,000264946546	0,000132387999
2	1	0	1	0	8051,1051	1,52925873	1,52979839	0,02511848942204209	3	4,73628606E-005	3,84262239E-005
2	1	0	1	0	8089,8131	1,91633821	1,91696274	0,03090988026276503	3	0,00118088676	5,92530887E-005
2	1	0	1	0	8128,5211	2,30341768	2,30409169	0,031757899120243181	3	0,00241473829	7,31731125E-005
2	1	0	1	0	8167,2291	2,69049692	2,69120288	0,034748513885359763	3	0,00370768784	9,35153003E-005
2	1	0	1	0	8205,9371	3,07757664	3,0782156	0,043478903998793395	3	0,00522757228	0,000133837442
2	1	0	0	0	8244,6448	3,46465588	3,46529913	0,035391591097162253	3	0,00680096401	0,00012264245
2	1	0	0	0	8283,3528	3,85173535	3,85246444	0,03894134335375088	3	0,00820177048	0,000150020147
2	0	0	1	0	8322,0214	3,76161671	3,76226878	-0,021266551865092381	3	0,00842733402	8,00104826E-005
2	0	0	1	0	8360,7294	3,37453723	3,37518024	-0,020776303047400467	3	0,00759444386	7,01237659E-005
2	0	0	0	0	8399,4373	2,98745799	2,98810911	-0,021957593366754429	3	0,00676057348	6,56116827E-005
2	0	0	0	0	8438,1452	2,60037851	2,60096717	-0,023569175085328854	3	0,00586417969	6,13026496E-005
2	0	0	0	0	8476,8532	2,21329904	2,21391392	-0,029515228091946176	3	0,00484965742	6,53441748E-005
2	0	0	0	0	8515,5612	1,82621968	1,8268652	-0,038367084158515418	3	0,00352989673	7,00914898E-005
2	0	0	0	0	8554,2692	1,43914008	1,4397409	-0,058213380398228877	3	0,0017264107	8,3812185E-005
2	1	0	0	1	8592,9576	1,34782135	1,34825492	0,010429593595391555	3	-0,000742706587	1,40617512E-005
2	1	0	0	0	8631,6126	1,7335006	1,73416865	0,0294492967012856	4	0,000620787789	5,10700484E-005
2	1	0	0	0	8670,3206	2,1205802	2,12112379	0,031580533759013158	4	0,00183003326	6,69862202E-005
2	1	0	0	0	8709,0286	2,50765967	2,50837731	0,033023800558617517	4	0,00308645493	8,28361517E-005
2	1	0	0	0	8747,7366	2,89473939	2,89544392	0,038971229236469453	4	0,00447104685	0,000112839007
2	1	0	0	0	8786,4446	3,28181863	3,28241229	0,040086564349217702	4	0,00612056907	0,000131580629
2	1	0	0	0	8825,1526	3,66889834	3,66970634	0,035174212959352442	4	0,00752858259	0,000129079039
2	0	0	0	0	8863,8010	3,94465494	3,94521427	-0,014390117475866419	4	0,00879137125	5,67720963E-005
2	0	0	0	0	8902,5090	3,55757523	3,55829477	-0,020965332242970675	4	0,00798915513	7,460083E-005
2	0	0	0	0	8941,2170	3,17049527	3,17126822	-0,020844277518335731	4	0,00716759171	6,61027952E-005
2	0	0	1	0	8979,9249	2,78341627	2,78414798	-0,022882521561613606	4	0,00630163494	6,37083285E-005
2	0	0	1	0	9018,6328	2,39633679	2,39710879	-0,025455576566013382	4	0,00536181685	6,10197858E-005
2	0	0	1	0	9057,3408	2,00925732	2,00999784	-0,033370226095602918	4	0,0041957316	6,70740847E-005
2	0	0	1	0	9096,0488	1,62217772	1,62282872	-0,045368927694787955	4	0,00267674285	7,36259972E-005
[...]
2	0	0	0	0	9560,3685	2,57937479	2,5800271	-0,023839607110218541	5	0,0058116084	6,15068348E-005
2	0	0	0	0	9599,0764	2,19229484	2,19281387	-0,030192780032477882	5	0,00478231581	6,6207147E-005
2	0	0	0	0	9637,7844	1,80521524	1,80568945	-0,038748160625497466	5	0,00344701624	6,99671436E-005
2	0	0	0	0	9676,4924	1,41813588	1,41869867	-0,06034532762822464	5	0,00161107769	8,56118349E-005
2	1	0	0	1	9715,1808	1,36882567	1,36968887	0,014198597649940219	5	-0,000650886097	1,94476615E-005
2	1	0	0	0	9753,8161	1,75520527	1,75576365	0,029856391279966374	6	0,000687462802	5,2420768E-005
2	1	0	0	0	9792,5240	2,14228439	2,14296722	0,031647269445885363	6	0,00190527458	6,78190627E-005
2	1	0	0	0	9831,2320	2,52936435	2,53000712	0,033187444386486355	6	0,0031672616	8,39644708E-005
2	1	0	0	0	9869,9400	2,91644335	2,91689992	0,039252274441187898	6	0,00456622476	0,000114494957
2	1	0	0	0	9908,6480	3,30352283	3,30413127	0,038848563412169798	6	0,00621378468	0,000128360756
2	1	0	0	0	9947,3560	3,69060278	3,69140315	0,035096688996190003	6	0,00760890543	0,000129556021
2	0	0	0	0	9986,0344	3,92265034	3,92327285	-0,016532698385331168	6	0,00875094905	6,48622881E-005
2	0	0	1	0	10024,7422	3,53557038	3,53630447	-0,021071832633525549	6	0,00793647207	7,45164143E-005
2	0	0	1	0	10063,4502	3,14849091	3,14913535	-0,020897082863720454	6	0,00711572962	6,58077406E-005
2	0	0	1	0	10102,1582	2,76141167	2,76202917	-0,02282982992430871	6	0,00624788273	6,30566574E-005
2	0	0	1	0	10140,8662	2,37433243	2,37501621	-0,02591972615725047	6	0,00529972324	6,15597673E-005
2	0	0	1	0	10179,5742	1,98725271	1,98789155	-0,033865587121841626	6	0,00411430746	6,7321118E-005
2	0	0	0	0	10218,2820	1,60017312	1,60061145	-0,046236892265302477	6	0,00257591647	7,4007301E-005
2	0	0	0	0	10257,0300	1,21269369	1,21336246	-0,13551892819641954	6	-0,000108940592	0,000164433586
2	1	0	0	0	10295,6178	1,57276738	1,57339156	0,026890594257835158	7	0,000157412112	4,23094352E-005
2	1	0	1	0	10334,3257	1,95984674	1,96052444	0,031253333618287584	7	0,00132281671	6,12729273E-005
2	1	0	1	0	10373,0336	2,34692669	2,34751129	0,032053343300638694	7	0,00256592245	7,5245589E-005
2	1	0	1	0	10411,7416	2,73400617	2,73449779	0,035573918941534163	7	0,00387575757	9,7276803E-005
2	1	0	1	0	10450,4496	3,12108541	3,12168908	0,04384481667592688	7	0,00543194124	0,000136869887
2	1	0	1	0	10489,1576	3,50816512	3,50891566	0,034852090554691238	7	0,00696293311	0,000122293044
2	1	0	1	0	10527,8656	3,89524508	3,8958981	0,040414194691149926	7	0,0083730258	0,000157449584
2	0	0	1	0	10566,4840	3,71860838	3,71929884	-0,021153880337132438	7	0,00832224358	7,86776E-005
2	0	0	0	0	10605,1918	3,3315289	3,33218765	-0,020472290408280192	7	0,00749209523	6,82175159E-005
2	0	0	0	0	10643,8998	2,94444919	2,94508576	-0,021761970182760022	7	0,00665890239	6,40908693E-005
2	0	0	0	0	10682,6078	2,55736971	2,55809021	-0,023946377472451875	7	0,00575473579	6,12569929E-005
2	0	0	0	0	10721,3158	2,17029023	2,17076993	-0,030822029802948346	7	0,00470947055	6,6907538E-005
2	0	0	0	0	10760,0238	1,78321075	1,7837882	-0,03930669297740137	7	0,00335727888	7,01148165E-005
2	0	0	1	0	10798,7316	1,39613116	1,39673948	-0,062717040440205542	7	0,00148280978	8,75993646E-005
2	0	0	1	0	10837,4796	1,00865173	1,00928581	-0,91929426720296806	7	-0,00898886845	0,000927830639
2	0	0	1	0	10876,2276	0,62117219	0,621520519	-2,2477724673571418	7	-0,0778489411	0,00139703671
2	1	0	0	1	10914,9262	0,765801907	0,76631546	0,81882408399272678	7	-0,112020835	0,000627477537
2	1	0	0	1	10953,6742	1,15328145	1,15408528	1,0700256872784237	7	-0,0681687519	0,0012349009
2	1	0	1	1	10989,6314	1,5129056	1,51338494	0,36244200418392755	7	-0,0435038134	0,000548514246