Folder: thesis/Experimentelles/Ausgewaehlte_Daten/LAGP/GCPL

Note: README.md
# thesis

Zusammenfassung
---------------
Es konnten die Festkörperelektrolytkeramiken LATP, LAGP, LTO und LLTO hergestellt,
mit XRD und MAS-NMR charakterisiert und zu Elektrodensuspensionen weiterverarbeitet
werden. Aus den Daten der MAS-NMR konnten dabei gegenüber der XRD keine Mehrinfor-
mationen gewonnen werden. Die mit den Suspensionen gegossenen und gestanzten Elektro-
denproben wurden mittels REM und EDX untersucht und als Kathode in Testzellen verbaut.
Mit diesen wurden Ladekennlinien erstellt und eine zyklischer Voltametrie durchgeführt. Aus
den Ladekennlinien konnten die Kapazitäten und der Grad der Lithiuminsertation in die
Materialen bestimmt werden. Die zyklische Voltametrie lieferte nicht-reaktive Spannungsbe-
reiche der Materialien.

Für ein noch besseres Verständnis der Lithiumbewegung und -insertation wurde eine in-situ
NMR-Testzelle konzipiert, konstruiert, gebaut und getestet. Für den Test kam dabei eine
Lithium-Schwefel-Zelle zum Einsatz, für welche ein Di?usionskoe?zient sowie ein Spektrum
vor und nach einer 90 minütigen Ladezeit aufgenommen worden ist.

Abstract
--------
The all solid state electrolyte ceramics LATP, LAGP, LTO, and LLTO were successfully
synthesized and characterized by using XRD. MAS-NMR spectroscopy were not able to ge-
nerate additional information. All powders were processed to electrode slurries, casted on
aluminum foils and punched to electrode samples. Those samples were studied by SEM and
EDX and then build into battery test cells. The cells were analyzed by measuring the charge
curves as well as cyclic voltammetry. With the charge curves capacities and the amount of
lithium insertion were calculated. The cyclic voltammetry was able to detect non-reactive
voltage regions.

To be able to better understand lithium movement and insertion a novel in-situ NMR sample
cell was designed, constructed, built and tested. Therefore, a lithium-sulfur-cell was built into
the in-situ sample cell. With this setting a diffusion coeffcient as well as a NMR spectrum
before and after 90 minutes of charging were measured.

File: LAGP_Korrosion_05_GCPL_C02.mpt
EC-Lab ASCII FILE
Nb header lines : 81

Galvanostatic Cycling with Potential Limitation

Run on channel : 2 (SN 6986)
Grouped channel(s) : 2
User :
CE vs. WE compliance from -10 V to 10 V
Electrode connection : standard
Ewe ctrl range : min = 0,00 V, max = 5,00 V
Acquisition started on : 08.27.2015 14:25:34
Saved on :
	File : LAGP_Korrosion_05_GCPL_C02.mpr
	Directory : C:\Gielisch\NeueZelle\LiS-Test\Paul\
	Host : 192.168.0.2
Device : VMP3 (SN 0324)
Address : 192.168.0.1
EC-Lab for windows v10.33 (software)
Internet server v10.33 (firmware)
Command interpretor v10.32 (firmware)
Electrode material :
Initial state :
Electrolyte :
Comments :
Mass of active material : 0,001 mg
 at x = 0,000
Molecular weight of active material (at x = 0) : 0,001 g/mol
Atomic weight of intercalated ion : 0,001 g/mol
Acquisition started at : xo = 0,000
Number of e- transfered per intercalated ion : 1
for DX = 1, DQ = 26,801 mA.h
Battery capacity : 0,000 A.h
Electrode surface area : 0,001 cm²
Characteristic mass : 0,001 g
Ns                  0                   1                   2
Set I/C             I                   I                   I
Is                  0,000               50,000              -50,000
unit Is             mA                  µA                  µA
vs.                 <None>              <None>              <None>
N                   1                   1                   1
I sign              > 0                 > 0                 > 0
t1 (h:m:s)          0:00:0,0000         6:00:0,0000         6:00:0,0000
I Range             100 µA              100 µA              100 µA
Bandwidth           5                   5                   5
dE1 (mV)            0,00                10,00               10,00
dt1 (s)             0,0000              10,0000             10,0000
EM (V)              0,000               4,000               1,500
tM (h:m:s)          0:00:0,0000         0:00:0,0000         0:00:0,0000
Im                  0,000               0,000               0,000
unit Im             mA                  mA                  mA
E range min (V)     0,000               0,000               0,000
E range max (V)     5,000               5,000               5,000
dq                  0,000               1,000               1,000
unit dq             mA.h                mA.h                mA.h
dtq (s)             0,0000              120,0000            120,0000
dQM                 0,000               0,000               0,000
unit dQM            mA.h                mA.h                mA.h
dxM                 0,000               0,000               0,000
tR (h:m:s)          0:00:0,0000         0:00:0,0000         0:00:0,0000
dER/dt (mV/h)       0,0                 0,1                 0,1
dER (mV)            0,00                5,00                5,00
dtR (s)             1,0000              120,0000            120,0000
EL (V)              pass                4,200               3,500
goto Ns'            0                   0                   0
nc cycles           0                   0                   0

Number of loops : 11
Loop 0 from point number 0 to 350
Loop 1 from point number 351 to 850
Loop 2 from point number 851 to 1350
Loop 3 from point number 1351 to 1850
Loop 4 from point number 1851 to 2350
Loop 5 from point number 2351 to 2850
Loop 6 from point number 2851 to 3350
Loop 7 from point number 3351 to 3850
Loop 8 from point number 3851 to 4350
Loop 9 from point number 4351 to 4850
Loop 10 from point number 4851 to 5350

mode	ox/red	error	control changes	Ns changes	counter inc.	Ns	time/s	control/V/mA	Ewe/V	dq/mA.h	<I>/mA	P/W	(Q-Qo)/mA.h	x	Capacity/mA.h
1	1	0	0	1	0	1	3945,2541	0,0500000007	2,99935222	0	0	0	0	0	0
1	1	0	0	0	0	1	4017,8843	0,0500000007	3,97242403	1,3674482683754629E-005	0,050008267884116269	0,000198654045	0,0010082347698174258	-3,7618594847953504E-005	0,0010082347698174258
1	0	0	1	0	0	2	4060,5645	-0,0500000007	3,06323433	-6,1321583324008525E-006	-0,04999042245091472	0,00015313238	0,00049370861294408678	-1,8420932147233808E-005	0,00055360191548946835
1	0	0	1	0	0	2	4109,1841	-0,0500000007	2,09030151	-9,0705414755890778E-006	-0,049990737458399962	0,000104495717	-0,00018143827753701923	6,7697060812648269E-006	0,0012287488059705738
1	1	0	1	0	0	1	4174,6815	0,0500000007	1,87501073	6,1121572340942093E-006	0,050008559793109901	9,37665827E-005	-0,00069965133648045248	2,6104932055312298E-005	0,0001949918868867809
1	1	0	1	0	0	1	4221,7521	0,0500000007	2,84824896	8,1292133546537818E-006	0,050008831905481562	0,00014243761	-4,5781156111408198E-005	1,7081564879356829E-006	0,00084886206725582541
1	1	0	1	0	0	1	4287,1091	0,0500000007	3,82110548	1,0243407099611229E-005	0,050008497430854522	0,000191087747	0,00086211010372089946	-3,216648708918903E-005	0,0017567533270881338
1	0	0	0	0	0	2	4335,6261	-0,0500000007	3,21391416	-5,8960891806830963E-006	-0,049990394035157619	0,000160664829	0,00060459855653334899	-2,2558385035664016E-005	0,00046564953610280307
1	0	0	0	0	0	2	4381,1305	-0,0500000007	2,24027538	-8,0151213115702067E-006	-0,049990362215601798	0,00011199218	-2,7285671037004134E-005	1,0180650723655072E-006	0,0010975337636731555
1	1	0	1	0	0	1	4448,2061	0,0500000007	1,72429299	5,6648682271026906E-006	0,050008646064129331	8,62295565E-005	-0,0007458814303219529	2,7829839013560918E-005	0,00010574048870475216
1	1	0	1	0	0	1	4492,8133	0,0500000007	2,69743562	7,0845097882880102E-006	0,050008304993432666	0,000134894188	-0,00012623294885711179	4,7099210438636576E-006	0,00072538897016959322
1	1	0	1	0	0	1	4555,1435	0,0500000007	3,67031145	9,0904193307376576E-006	0,050008419906115923	0,000183546479	0,00073961247045023104	-2,7595935692040784E-005	0,0015912343894769363
1	0	0	0	0	0	2	4607,1447	-0,0500000007	3,36409783	-6,0293693467974656E-006	-0,049990165618706349	0,000168171813	0,00070667287140954266	-2,6366914964070768E-005	0,0003775794231924745
1	0	0	0	0	0	2	4650,8781	-0,0500000007	2,39055467	-7,0041991023139827E-006	-0,04999031933703081	0,000119504592	9,93813124039728E-005	-3,708050385387863E-006	0,00098487098219804442
1	1	0	1	0	0	1	4719,6475	0,0500000007	1,57389939	4,5840942983825997E-006	0,050008302043066944	7,87080353E-005	-0,00080014512000133837	2,9854490233805517E-005	2,7021249669519216E-005
1	1	0	1	0	0	1	4762,3309	0,0500000007	2,54757619	6,5844287383887501E-006	0,050008320136753088	0,00012740001	-0,00020722044737703517	7,7316735024918451E-006	0,00061994592229382221
1	1	0	1	0	0	1	4822,0769	0,0500000007	3,52069974	8,8404047069036301E-006	0,05000857531488439	0,000176065179	0,00062272571186820416	-2,3234733573427021E-005	0,0014498920815390618
1	0	0	0	0	0	2	4876,7199	-0,0500000007	3,51424336	-6,1432837378233664E-006	-0,049990555435354656	0,000175678972	0,0008078158951978697	-3,0140697169855034E-005	0,00028692980200052259
1	0	0	0	0	0	2	4919,6447	-0,0500000007	2,54102445	-6,54042698463632E-006	-0,049990525329790771	0,000127027146	0,00021175290536731251	-7,9007856040636736E-006	0,00088299279183107955
1	0	0	0	0	0	2	4985,8645	-0,0500000007	1,56812012	-1,4277744836691354E-005	-0,049990159535844851	7,8390578E-005	-0,00070779048799438029	2,6408614741502544E-005	0,0018025361851927722
1	1	0	1	0	0	1	5030,8325	0,0500000007	2,39670587	6,367723272492489E-006	0,050008298557596685	0,000119855184	-0,00028926000920475002	1,0792679857647896E-005	0,00052088284011025203
1	1	0	1	0	0	1	5087,9965	0,0500000007	3,36961961	8,6403354648500685E-006	0,050008373069998208	0,000168509199	0,0005048192001438505	-1,8835483094000355E-005	0,0013149620494588534
1	0	0	0	0	0	2	5145,0405	-0,0500000007	3,66522837	-6,1738246519946394E-006	-0,049990483617213293	0,000183226541	0,00090711204852910042	-3,3845570155741306E-005	0,00019502061772636243
1	0	0	0	0	0	2	5187,5955	-0,0500000007	2,69223809	-6,3099329099059098E-006	-0,049990666264356461	0,000134586779	0,00031617995013856576	-1,179709904813409E-005	0,00078595271611689741
1	0	0	0	0	0	2	5246,4371	-0,0500000007	1,71895242	-1,205611744005647E-005	-0,049990812381447712	8,59318243E-005	-0,00050091183014399123	1,8689693865790768E-005	0,0016030444963994557
1	1	0	1	0	0	1	5298,5667	0,0500000007	2,24587345	6,2954961042851213E-006	0,050008354478370982	0,000112312438	-0,00037369770119265523	1,3943163673400939E-005	0,00042493029742098221
1	1	0	1	0	0	1	5352,5285	0,0500000007	3,21911168	9,9794340199894387E-006	0,05000830026063488	0,000160982308	0,00037589460340236659	-1,4025133048611707E-005	0,0011745226020160038
1	0	0	0	0	0	2	5412,5065	-0,0500000007	3,81598425	-6,2266343867199283E-006	-0,049990820836563238	0,000190764185	0,0010062952796956651	-3,7546229863838413E-005	0,00010136166883094443
1	0	0	0	0	0	2	5455,0701	-0,0500000007	2,84261274	-6,2044142942047782E-006	-0,049990805124204698	0,000142104502	0,0004152425238582327	-1,5493256864661782E-005	0,0006924144246683767
1	0	0	0	0	0	2	5508,3213	-0,0500000007	1,86918378	-1,0353649388377866E-005	-0,049990797008382118	9,34419877E-005	-0,00032421941591684173	1,2097062325498266E-005	0,0014318763644434501
1	1	0	1	0	0	1	5565,7175	0,0500000007	2,09549904	6,2732550104459123E-006	0,05000823363864048	0,000104792205	-0,00045963065611682906	1,7149437759708566E-005	0,0003301686095938983
1	1	0	1	0	0	1	5615,5071	0,0500000007	3,0687561	9,7960850385328128E-006	0,050008375731783494	0,000153463508	0,00023200657173631008	-8,6564771276350259E-006	0,0010218058374470368
1	0	0	0	0	0	2	5679,7577	-0,0500000007	3,96639681	-5,0740195417569741E-006	-0,049990340916768736	0,00019828153	0,0010985451484998472	-4,0988196500190189E-005	1,2983528519670166E-005
1	0	0	0	0	0	2	5722,0673	-0,0500000007	2,99287271	-6,1127597927633254E-006	-0,049990766743150893	0,000149615997	0,00051102131544893709	-1,9066892354865853E-005	0,00060050736157058022
1	0	0	0	0	0	2	5771,3387	-0,0500000007	2,01976824	-9,1594065419501722E-006	-0,049990697317228774	0,000100969621	-0,0001731752914613328	6,4614029610780301E-006	0,0012847039684808499
1	1	0	1	0	0	1	5832,3541	0,0500000007	1,94499099	6,1148519847128128E-006	0,050007876900146202	9,72648704E-005	-0,00054549080689452531	2,0352995425424896E-005	0,00023682786519280896
1	1	0	1	0	0	1	5878,9677	0,0500000007	2,91805744	8,3791469269328653E-006	0,050008171919191501	0,000145926722	0,00010202824172404136	-3,8068108771539418E-006	0,00088434691381137574
1	1	0	1	0	0	1	5943,1041	0,0500000007	3,89087582	1,0359976249229578E-005	0,050007931012232774	0,000194574648	0,00099295701554547635	-3,7048561294907994E-005	0,0017752756876328115
1	0	0	0	0	0	2	5988,4497	-0,0500000007	3,14380026	-6,0211243815720077E-006	-0,049990885692058848	0,000157161354	0,00060720501308831974	-2,2655635434148086E-005	0,00050773557189934778
1	0	0	0	0	0	2	6034,7841	-0,0500000007	2,17079115	-8,48447920775248E-006	-0,049990385461923648	0,000108518689	-3,6207995034902637E-005	1,3509689769193008E-006	0,0011511485800225699
1	1	0	1	0	0	1	6098,7477	0,0500000007	1,79459739	5,8760211892012096E-006	0,05000869157634409	8,97454665E-005	-0,00062958733949168128	2,3490750125615411E-005	0,00014675002416155869
1	1	0	1	0	0	1	6143,3541	0,0500000007	2,76781654	7,309525900209943E-006	0,050008159557428096	0,000138413408	-9,9501865328133158E-006	3,712548377073417E-007	0,00076638717712042701
1	1	0	1	0	0	1	6205,4843	0,0500000007	3,74032974	8,993194751648439E-006	0,050008497833433363	0,000187048267	0,00085311114777004262	-3,18307239434376E-005	0,0016294485114232835
1	0	0	0	0	0	2	6254,7209	-0,0500000007	3,29381251	-5,8767372572587597E-006	-0,049991149297474214	0,000164661469	0,00069909024046361997	-2,6083996808522656E-005	0,00041891133248661126
1	0	0	0	0	0	2	6298,9263	-0,0500000007	2,32044077	-7,2430720207177933E-006	-0,049990528356332019	0,000116000061	8,5239939418937216E-005	-3,1804167460379917E-006	0,0010327616335312939
1	1	0	1	0	0	1	6365,1413	0,0500000007	1,64405131	5,2842314944912986E-006	0,050008500555016301	8,22165384E-005	-0,0007080077224234656	2,6416720050126515E-005	6,2432779568395264E-005
1	1	0	1	0	0	1	6408,2467	0,0500000007	2,61715579	6,620558921247721E-006	0,050008418810203558	0,000130879824	-0,00010922267087481904	4,075244701782327E-006	0,00066121783111704205
1	1	0	1	0	0	1	6468,4247	0,0500000007	3,59087086	8,6236630444311424E-006	0,050008355887954822	0,000179573544	0,00072672092245544832	-2,7114934703484819E-005	0,0014971614244473094
1	0	0	0	0	0	2	6520,5125	-0,0500000007	3,44451118	-6,0961028670685158E-006	-0,049990821382792742	0,000172193948	0,00079110074314252454	-2,9517032372909152E-005	0,00032952924708359776
1	0	0	0	0	0	2	6563,6365	-0,0500000007	2,47085357	-6,7126097614980416E-006	-0,049990474625493197	0,000123519145	0,0001922696103021593	-7,1738376696139891E-006	0,00092836037992396301
1	0	0	0	0	0	2	6632,5817	-0,0500000007	1,49999011	-1,1650479914413558E-005	-0,04999014088115577	7,49847168E-005	-0,0007651158928763031	2,8547502672473677E-005	0,0018857458831024243
1	1	0	1	0	0	1	6673,2485	0,0500000007	2,46693397	6,4121893971330598E-006	0,050008410114039731	0,000123367441	-0,000201592158588164	7,5216744804643034E-006	0,0005635237342881392
1	1	0	1	0	0	1	6731,1057	0,0500000007	3,43990493	8,4930965496848038E-006	0,050008419937124634	0,000172024214	0,00060211661555939136	-2,2465780480920522E-005	0,0013672325084356946
1	0	0	0	0	0	2	6785,7799	-0,0500000007	3,59526706	-6,1544027860379878E-006	-0,049990636953360442	0,000179729686	0,00088486430411092851	-3,3015476899088813E-005	0,00023832631414238774
1	0	0	0	0	0	2	6828,4323	-0,0500000007	2,62172389	-6,4321658799631731E-006	-0,04999092713304137	0,000131062407	0,00029258064957801594	-1,0916577414622912E-005	0,00083060996867530035
1	0	0	0	0	0	2	6889,7069	-0,0500000007	1,64885771	-1,2561463326422704E-005	-0,049990347692293421	8,24269737E-005	-0,0005582930062461817	2,0830662695975293E-005	0,0016814836244994986
1	0	0	0	0	0	2	6904,3289	-0,0500000007	1,49995196	-1,2894798386635051E-005	-0,049990603870609626	7,49835017E-005	-0,00076133744836670733	2,8406523827647984E-005	0,0018845280666200243