Folder: thesis/Experimentelles/Ausgewaehlte_Daten/LAGP/PEIS

Note: Experimentelles/Ausgewaehlte_Daten/LAGP/PEIS/LAGP_Korrosion_04_PEIS_C02.txt
1000024,25	14,9947605	2,70319676
681286,5	13,1134644	1,0506947
464160,125	13,0744438	0,0976791754
316223,094	13,2192707	-0,793524683
215441,859	13,4594812	-1,6489737
146777,328	13,9097471	-2,58276916
100024,406	14,5510321	-3,59479332
68127,4297	15,474762	-4,73212194
46411,125	16,7283764	-5,92373705
31628,4121	18,3745079	-7,09333277
21545,4082	20,3315907	-8,17899513
14672,8496	22,6262608	-9,1685915
10015,2705	25,2089996	-10,0559702
6856,00244	28,1085014	-10,7193432
4642,42725	31,3082619	-11,0591297
3160,05566	34,603756	-10,921423
2152,93286	37,6746712	-10,2871532
1468,58972	40,3960571	-9,25372982
999,040405	42,6440392	-8,03500462
681,089661	44,3687401	-6,85063457
464,553894	45,7002144	-5,79846859
316,315765	46,7130585	-4,98567295
215,344498	47,4760361	-4,44897079
146,737289	48,1298599	-4,19488192
99,9040375	48,7372704	-4,23088789
68,1888962	49,3089981	-4,57657433
46,3802681	49,9174576	-5,23241186
31,5869217	50,5162354	-6,32993603
21,5220375	51,157074	-8,06114769
14,6851501	51,8855515	-10,5347033
9,9904108	53,0171089	-14,1029377
6,81718969	54,4681168	-19,039793
4,63925123	55,8410683	-26,1518955
3,16039586	57,9527473	-36,1566086
2,1522038	61,2519188	-49,601223
1,46630979	63,4202003	-70,3399353
0,998529792	65,8375397	-97,8572464

Note: Experimentelles/Ausgewaehlte_Daten/LAGP/PEIS/LAGP_Korrosion_07_PEIS_C02.txt
1000024,25	15,7464676	2,32383227
681286,5	13,2787142	1,14506936
464160,125	13,2278414	0,165967613
316223,094	13,3496008	-0,755904436
215441,859	13,6107454	-1,60477281
146777,328	14,0644064	-2,52304339
100024,406	14,7200203	-3,566818
68127,4297	15,6258583	-4,62839031
46411,125	16,8842144	-5,75727367
31628,4121	18,500061	-6,85807467
21545,4082	20,3978844	-7,87298536
14672,8496	22,6266136	-8,74452686
10015,2705	25,1141491	-9,48708153
6856,00244	27,8418407	-9,99359035
4642,42725	30,8074436	-10,203948
3160,05566	33,8135872	-9,9545927
2152,93286	36,5711746	-9,30633163
1468,58972	39,0300102	-8,35616589
999,040405	41,0254707	-7,2356658
681,089661	42,5851135	-6,16537523
464,553894	43,7750359	-5,21618748
316,315765	44,6873474	-4,45648003
215,344498	45,4141464	-3,96626973
146,737289	46,0089035	-3,70395041
99,9040375	46,5355721	-3,71029592
68,1888962	47,0534096	-3,93974137
46,3802681	47,57827	-4,46037626
31,5869217	48,100235	-5,36541748
21,5220375	48,6607208	-6,76798058
14,6851501	49,208889	-8,82289886
9,9904108	50,1442871	-11,9080753
6,81718969	51,3401909	-16,1892223
4,63925123	52,3726425	-22,1287212
3,16039586	54,417675	-31,5089397
2,1522038	56,1381035	-43,0956726
1,46630979	58,9040222	-60,9424706
0,998529792	61,1614838	-84,801384

Note: README.md
# thesis

Zusammenfassung
---------------
Es konnten die Festkörperelektrolytkeramiken LATP, LAGP, LTO und LLTO hergestellt,
mit XRD und MAS-NMR charakterisiert und zu Elektrodensuspensionen weiterverarbeitet
werden. Aus den Daten der MAS-NMR konnten dabei gegenüber der XRD keine Mehrinfor-
mationen gewonnen werden. Die mit den Suspensionen gegossenen und gestanzten Elektro-
denproben wurden mittels REM und EDX untersucht und als Kathode in Testzellen verbaut.
Mit diesen wurden Ladekennlinien erstellt und eine zyklischer Voltametrie durchgeführt. Aus
den Ladekennlinien konnten die Kapazitäten und der Grad der Lithiuminsertation in die
Materialen bestimmt werden. Die zyklische Voltametrie lieferte nicht-reaktive Spannungsbe-
reiche der Materialien.

Für ein noch besseres Verständnis der Lithiumbewegung und -insertation wurde eine in-situ
NMR-Testzelle konzipiert, konstruiert, gebaut und getestet. Für den Test kam dabei eine
Lithium-Schwefel-Zelle zum Einsatz, für welche ein Di?usionskoe?zient sowie ein Spektrum
vor und nach einer 90 minütigen Ladezeit aufgenommen worden ist.

Abstract
--------
The all solid state electrolyte ceramics LATP, LAGP, LTO, and LLTO were successfully
synthesized and characterized by using XRD. MAS-NMR spectroscopy were not able to ge-
nerate additional information. All powders were processed to electrode slurries, casted on
aluminum foils and punched to electrode samples. Those samples were studied by SEM and
EDX and then build into battery test cells. The cells were analyzed by measuring the charge
curves as well as cyclic voltammetry. With the charge curves capacities and the amount of
lithium insertion were calculated. The cyclic voltammetry was able to detect non-reactive
voltage regions.

To be able to better understand lithium movement and insertion a novel in-situ NMR sample
cell was designed, constructed, built and tested. Therefore, a lithium-sulfur-cell was built into
the in-situ sample cell. With this setting a diffusion coeffcient as well as a NMR spectrum
before and after 90 minutes of charging were measured.

File: LAGP_Korrosion_04_PEIS_C02.mpt
EC-Lab ASCII FILE
Nb header lines : 68

Potentio Electrochemical Impedance Spectroscopy

Run on channel : 2 (SN 6986)
Grouped channel(s) : 2
User :
CE vs. WE compliance from -10 V to 10 V
Electrode connection : standard
Ewe ctrl range : min = 0,00 V, max = 5,00 V
Acquisition started on : 08.27.2015 14:25:34
Saved on :
	File : LAGP_Korrosion_04_PEIS_C02.mpr
	Directory : C:\Gielisch\NeueZelle\LiS-Test\Paul\
	Host : 192.168.0.2
Device : VMP3 (SN 0324)
Address : 192.168.0.1
EC-Lab for windows v10.33 (software)
Internet server v10.33 (firmware)
Command interpretor v10.32 (firmware)
Electrode material :
Initial state :
Electrolyte :
Comments :
Mass of active material : 0,001 mg
 at x = 0,000
Molecular weight of active material (at x = 0) : 0,001 g/mol
Atomic weight of intercalated ion : 0,001 g/mol
Acquisition started at : xo = 0,000
Number of e- transfered per intercalated ion : 1
for DX = 1, DQ = 26,801 mA.h
Battery capacity : 0,000 A.h
Electrode surface area : 0,001 cm²
Characteristic mass : 0,001 g
Multi Sine          0
E (V)               0,0000
vs.                 Eoc
tE (h:m:s)          0:00:0,0000
record              0
dI                  0,000
unit dI             mA
dt (s)              0,000
fi                  1,000
unit fi             MHz
ff                  1,000
unit ff             Hz
Sel Nd              1
Nd                  6
Nt                  51
Log                 1
Va (mV)             10,0
pw                  0,10
Na                  2
E range min (V)     0,000
E range max (V)     5,000
I Range             Auto
Bandwidth           5
corr                0
nc cycles           0
goto Ns'            0
nr cycles           0
inc. cycle          0

Number of loops : 1
Loop 0 from point number 0 to 36

freq/Hz	Re(Z)/Ohm	-Im(Z)/Ohm	|Z|/Ohm	Phase(Z)/deg	time/s	<Ewe>/V	<I>/mA	Cs/µF	Cp/µF	cycle number	I Range	|Ewe|/V	|I|/A	Re(Y)/Ohm-1	Im(Y)/Ohm-1	|Y|/Ohm-1	Phase(Y)/deg
1000024,25	14,9947605	-2,70319676	15,2364731	10,2192955	3924,7519	2,99408293	0,0246169735	-0,0588751398	-0,00185318326	1	10	0,000586520007	3,84944724E-005	0,0645907968	-0,0116441762	0,0656319857	-10,2192955
681286,5	13,1134644	-1,0506947	13,1554899	4,58094406	3925,9839	2,99449944	0,0160412919	-0,222338036	-0,00141825015	1	10	0,00209970959	0,000159607094	0,0757710636	-0,00607103202	0,0760138929	-4,58094406
464160,125	13,0744438	-0,0976791754	13,0748091	0,428048819	3927,2159	2,99468255	0,0144908922	-3,51034927	-0,00019592217	1	10	0,00622680364	0,000476244342	0,0764808208	-0,000571388227	0,0764829516	-0,428048819
316223,094	13,2192707	0,793524683	13,2430658	-3,43522167	3927,5299	2,99456692	0,0136970663	0,634258211	0,00227724598	1	10	0,0103999702	0,00078531442	0,0753755346	0,00452463329	0,0755112171	3,43522167
215441,859	13,4594812	1,6489737	13,5601158	-6,98472309	3927,9459	2,9944582	0,0144424476	0,447998255	0,00662486395	1	10	0,0101858014	0,000751158863	0,0731983855	0,00896782149	0,0737456828	6,98472309
146777,328	13,9097471	2,58276916	14,1475	-10,5189152	3928,3619	2,99442172	0,0142281493	0,419832051	0,0139922434	1	10	0,0101367394	0,000716503942	0,0694960058	0,0129040554	0,0706838667	10,5189152
100024,406	14,5510321	3,59479332	14,9884977	-13,8769083	3928,7779	2,99459553	0,0243281536	0,442629367	0,025460789	1	10	0,0101408716	0,000676576921	0,0647705495	0,0160013903	0,0667178258	13,8769083
68127,4297	15,474762	4,73212194	16,182127	-17,0034275	3929,0919	2,99442554	0,0138815427	0,493676245	0,0422165617	1	10	0,0105486372	0,000651869632	0,0590952747	0,0180711038	0,0617965721	17,0034275
46411,125	16,7283764	5,92373705	17,7462463	-19,4997196	3929,4059	2,99442625	0,0138442721	0,578898311	0,0645031333	1	10	0,0103501733	0,000583231682	0,0531178862	0,0188097376	0,0563499443	19,4997196
31628,4121	18,3745079	7,09333277	19,6961403	-21,1086845	3929,7199	2,99442363	0,0136560602	0,709402025	0,0920091122	1	10	0,0102412924	0,000519964437	0,047364559	0,0182847101	0,0507713705	21,1086845
21545,4082	20,3315907	8,17899513	21,9150524	-21,9139442	3929,9319	2,99443054	0,013626243	0,903161585	0,125799909	1	10	0,0108927516	0,000497044297	0,0423337109	0,0170300119	0,0456307381	21,9139442
14672,8496	22,6262608	9,1685915	24,413332	-22,0587273	3930,2459	2,99443102	0,0136951888	1,1830498	0,166860744	1	10	0,0101195807	0,000414510432	0,037962839	0,015383264	0,0409612246	22,0587273
10015,2705	25,2089996	10,0559702	27,1406746	-21,7472534	3930,4981	2,99447012	0,0147368675	1,58027792	0,216940254	1	10	0,010152177	0,00037405765	0,0342227072	0,013651574	0,0368450694	21,7472534
6856,00244	28,1085014	10,7193432	30,0830879	-20,8746452	3930,8475	2,99446964	0,0134380301	2,16561365	0,274961889	1	10	0,0101319542	0,000336799014	0,0310593862	0,0118446797	0,0332412682	20,8746452
4642,42725	31,3082619	11,0591297	33,2040901	-19,4549313	3931,2987	2,99446559	0,0133290142	3,09994578	0,343884677	1	10	0,00946798548	0,000285145157	0,0283972174	0,0100308508	0,0301167723	19,4549313
3160,05566	34,603756	10,921423	36,2863235	-17,5164165	3931,7497	2,9944787	0,0131724821	4,61154222	0,417752147	1	10	0,00978344679	0,000269618031	0,0262807216	0,00829455908	0,0275585931	17,5164165
2152,93286	37,6746712	10,2871532	39,0538902	-15,2724485	3932,4472	2,99446416	0,0106478576	7,18611956	0,498604566	1	11	0,0100785512	0,000258067797	0,0247013588	0,00674476195	0,0256056432	15,2724485
1468,58972	40,3960571	9,25372982	41,4424057	-12,902422	3932,8983	2,99446416	0,0104082003	11,7112398	0,583910882	1	11	0,0100776693	0,000243172894	0,0235206354	0,0053879912	0,0241298731	12,902422
999,040405	42,6440392	8,03500462	43,3944168	-10,6705875	3933,3492	2,99445558	0,0102147954	19,8267231	0,67975986	1	11	0,0100686578	0,000232026563	0,022645954	0,00426695822	0,023044439	10,6705875
681,089661	44,3687401	6,85063457	44,8945007	-8,77728653	3933,7997	2,99445534	0,0100214845	34,11026	0,794255733	1	11	0,0100564836	0,000224002564	0,022013586	0,00339894788	0,0222744439	8,77728653
464,553894	45,7002144	5,79846859	46,0666008	-7,23108196	3934,2513	2,99445891	0,0098576406	59,0841103	0,936105967	1	11	0,0100530824	0,00021822931	0,0215350501	0,00273237913	0,0217077006	7,23108196
316,315765	46,7130585	4,98567295	46,978363	-6,09210205	3934,7002	2,99445581	0,00964446552	100,919594	1,13665152	1	11	0,0100507606	0,00021394447	0,0211661812	0,00225906121	0,0212863944	6,09210205
215,344498	47,4760361	4,44897079	47,6840363	-5,3535428	3935,1507	2,99446058	0,00946952589	166,121857	1,44610512	1	11	0,0100428043	0,000210611455	0,0208799001	0,00195665169	0,0209713783	5,3535428
146,737289	48,1298599	4,19488192	48,3123207	-4,98117352	3935,5977	2,99445391	0,00928721763	258,559143	1,94932199	1	11	0,0100404136	0,000207823046	0,0206204802	0,00179723103	0,0206986535	4,98117352
99,9040375	48,7372704	4,23088789	48,9205666	-4,96141529	3936,0492	2,99445987	0,009126544	376,535217	2,81634378	1	11	0,0100420229	0,000205272008	0,0203647111	0,00176786294	0,0204413012	4,96141529
68,1888962	49,3089981	4,57657433	49,5209274	-5,30266953	3936,5114	2,99445653	0,0090055028	509,994995	4,35581493	1	11	0,010039473	0,000202731928	0,0201070644	0,00186622073	0,0201934837	5,30266953
46,3802681	49,9174576	5,23241186	50,1909409	-5,98396444	3936,9501	2,99445772	0,00874971226	655,820435	7,12751436	1	11	0,0100400876	0,000200037844	0,0198153518	0,00207707053	0,0199239142	5,98396444
31,5869217	50,5162354	6,32993603	50,9112778	-7,14222145	3937,3800	2,99445033	0,00856600609	796,000793	12,3050718	1	11	0,0100380452	0,000197167421	0,0194896031	0,00244214456	0,0196420141	7,14222145
21,5220375	51,157074	8,06114769	51,7883034	-8,95482922	3937,8019	2,99446011	0,00860358682	917,360229	22,2264595	1	11	0,0100378748	0,000193825137	0,0190740246	0,00300561567	0,0193093792	8,95482922
14,6851501	51,8855515	10,5347033	52,9442215	-11,4771662	3938,2624	2,99446511	0,00863221474	1028,77271	40,7311745	1	11	0,0100383367	0,000189602128	0,0185101237	0,00375824585	0,018887803	11,4771662
9,9904108	53,0171089	14,1029377	54,8607941	-14,8961401	3938,7132	2,99446034	0,00835460238	1129,60657	74,6486893	1	11	0,0100392289	0,000182994598	0,0176153742	0,00468581775	0,0182279535	14,8961401
6,81718969	54,4681168	19,039793	57,6999969	-19,2675076	3939,0527	2,99445963	0,00785840861	1226,17517	133,513565	1	11	0,0100344149	0,000173906679	0,016360281	0,00571887568	0,0173310228	19,2675076
4,63925123	55,8410683	26,1518955	61,6615486	-25,0949745	3939,5376	2,99446082	0,00804444589	1311,80444	235,964447	1	11	0,0100390799	0,000162809403	0,0146867214	0,00687819207	0,0162175614	25,0949745
3,16039586	57,9527473	36,1566086	68,3068161	-31,9599609	3940,5925	2,99446964	0,00775129022	1392,80701	390,245789	1	12	0,0100429058	0,000147026411	0,0124206962	0,00774924876	0,0146398274	31,9599609
2,1522038	61,2519188	49,601223	78,8167419	-39,0002213	3941,5979	2,99446845	0,00744274631	1490,88562	590,46228	1	12	0,0100378115	0,000127356339	0,00986013282	0,00798464101	0,0126876598	39,0002213
1,46630979	63,4202003	70,3399353	94,7091751	-47,9614067	3943,0593	2,99446583	0,00719629647	1543,09436	851,162109	1	12	0,0100426795	0,000106037027	0,0070703919	0,00784183666	0,0105586387	47,9614067
0,998529792	65,8375397	97,8572464	117,943298	-56,0676651	3945,1911	2,99447036	0,00680429349	1628,79382	1121,25806	1	12	0,0100384764	8,51127334E-005	0,00473289704	0,00703471433	0,00847865082	56,0676651

File: LAGP_Korrosion_07_PEIS_C02.mpt
EC-Lab ASCII FILE
Nb header lines : 68

Potentio Electrochemical Impedance Spectroscopy

Run on channel : 2 (SN 6986)
Grouped channel(s) : 2
User :
CE vs. WE compliance from -10 V to 10 V
Electrode connection : standard
Ewe ctrl range : min = 0,00 V, max = 5,00 V
Acquisition started on : 08.27.2015 14:25:34
Saved on :
	File : LAGP_Korrosion_07_PEIS_C02.mpr
	Directory : C:\Gielisch\NeueZelle\LiS-Test\Paul\
	Host : 192.168.0.2
Device : VMP3 (SN 0324)
Address : 192.168.0.1
EC-Lab for windows v10.33 (software)
Internet server v10.33 (firmware)
Command interpretor v10.32 (firmware)
Electrode material :
Initial state :
Electrolyte :
Comments :
Mass of active material : 0,001 mg
 at x = 0,000
Molecular weight of active material (at x = 0) : 0,001 g/mol
Atomic weight of intercalated ion : 0,001 g/mol
Acquisition started at : xo = 0,000
Number of e- transfered per intercalated ion : 1
for DX = 1, DQ = 26,801 mA.h
Battery capacity : 0,000 A.h
Electrode surface area : 0,001 cm²
Characteristic mass : 0,001 g
Multi Sine          0
E (V)               0,0000
vs.                 Eoc
tE (h:m:s)          0:00:0,0000
record              0
dI                  0,000
unit dI             mA
dt (s)              0,000
fi                  1,000
unit fi             MHz
ff                  1,000
unit ff             Hz
Sel Nd              1
Nd                  6
Nt                  51
Log                 1
Va (mV)             10,0
pw                  0,10
Na                  2
E range min (V)     0,000
E range max (V)     5,000
I Range             Auto
Bandwidth           5
corr                0
nc cycles           0
goto Ns'            0
nr cycles           0
inc. cycle          0

Number of loops : 1
Loop 0 from point number 0 to 36

freq/Hz	Re(Z)/Ohm	-Im(Z)/Ohm	|Z|/Ohm	Phase(Z)/deg	time/s	<Ewe>/V	<I>/mA	Cs/µF	Cp/µF	cycle number	I Range	|Ewe|/V	|I|/A	Re(Y)/Ohm-1	Im(Y)/Ohm-1	|Y|/Ohm-1	Phase(Y)/deg
1000024,25	15,7464676	-2,32383227	15,917017	8,39500046	6908,4171	1,50324273	-0,0133474879	-0,0684864819	-0,00145979214	1	10	0,000668352121	4,19897842E-005	0,0621526688	-0,009172366	0,0628258437	-8,39500046
681286,5	13,2787142	-1,14506936	13,3279943	4,92862034	6909,6490	1,50367713	-0,0198155884	-0,204013333	-0,00150588749	1	10	0,00214503985	0,000160942436	0,0747526214	-0,00644617667	0,0750300437	-4,92862034
464160,125	13,2278414	-0,165967613	13,2288828	0,718843281	6910,8810	1,50384462	-0,0187869463	-2,06599355	-0,000325184112	1	10	0,00633250503	0,000478687813	0,0755862296	-0,000948368339	0,0755921751	-0,718843281
316223,094	13,3496008	0,755904436	13,370985	-3,24084115	6911,1950	1,50370967	-0,0191465877	0,665824294	0,00212797569	1	10	0,0103787985	0,000776217959	0,0746691972	0,00422804989	0,0747888088	3,24084115
215441,859	13,6107454	1,60477281	13,7050238	-6,72440481	6911,6110	1,50362372	-0,0174806472	0,460337669	0,00631166622	1	10	0,0101194847	0,000738377741	0,0724639967	0,00854385644	0,0729659423	6,72440481
146777,328	14,0644064	2,52304339	14,2889214	-10,1702328	6912,0270	1,50359213	-0,0174843743	0,429770321	0,013399451	1	10	0,0101497844	0,000710325432	0,0688846558	0,0123573625	0,069984287	10,1702328
100024,406	14,7200203	3,566818	15,1459961	-13,6208487	6912,3411	1,50346434	-0,0277558193	0,44610098	0,0247399844	1	10	0,0110342586	0,000728526444	0,0641671494	0,0155483847	0,0660240501	13,6208487
68127,4297	15,6258583	4,62839031	16,2969151	-16,4993267	6912,6550	1,50356901	-0,0169868283	0,504740477	0,0407115184	1	10	0,0106760608	0,000655097014	0,0588346347	0,0174268615	0,0613613054	16,4993267
46411,125	16,8842144	5,75727367	17,8388023	-18,8286381	6912,9691	1,50357163	-0,0163103919	0,595636308	0,0620416775	1	10	0,0104053756	0,000583300134	0,0530578271	0,0180919562	0,0560575761	18,8286381
31628,4121	18,500061	6,85807467	19,7303181	-20,3400211	6913,2831	1,50357878	-0,0165992305	0,733737171	0,0886496007	1	10	0,0101918606	0,000516558357	0,047523126	0,0176170841	0,0506834202	20,3400211
21545,4082	20,3978844	7,87298536	21,8645287	-21,1051254	6913,4950	1,50358248	-0,0156134563	0,93826592	0,121653497	1	10	0,0108589083	0,000496644992	0,0426682569	0,0164686944	0,0457361788	21,1051254
14672,8496	22,6266136	8,74452686	24,2575836	-21,1300659	6913,8091	1,5035733	-0,0161035508	1,24042165	0,161193267	1	10	0,010103845	0,000416523137	0,0384524912	0,0148607688	0,0412242226	21,1300659
10015,2705	25,1141491	9,48708153	26,8463249	-20,6944809	6914,0613	1,50362051	-0,0142661715	1,67503858	0,209180117	1	10	0,0101394961	0,000377686549	0,0348456688	0,0131632444	0,0372490473	20,6944809
6856,00244	27,8418407	9,99359035	29,5810738	-19,7451668	6914,4107	1,50361621	-0,0153823895	2,32288456	0,265120208	1	10	0,010125096	0,000342282903	0,0318177938	0,0114207258	0,0338054001	19,7451668
4642,42725	30,8074436	10,203948	32,4533386	-18,3257465	6914,8619	1,50361621	-0,0146416621	3,3597486	0,332142532	1	10	0,0094624944	0,000291572302	0,0292507429	0,00968834199	0,0308134705	18,3257465
3160,05566	33,8135872	9,9545927	35,2484398	-16,4042301	6915,3129	1,50361753	-0,0143015794	5,05943346	0,403523743	1	10	0,0097800456	0,000277460378	0,027215194	0,00801205076	0,0283700507	16,4042301
2152,93286	36,5711746	9,30633163	37,736702	-14,2771301	6916,0094	1,50361204	-0,0158203356	7,94348574	0,483103603	1	11	0,0100615956	0,000266626244	0,025680948	0,00653507607	0,0264994018	14,2771301
1468,58972	39,0300102	8,35616589	39,9144974	-12,0843601	6916,4604	1,50361586	-0,0155762937	12,969183	0,568414807	1	11	0,0100756092	0,000252429803	0,024498377	0,00524500292	0,0250535533	12,0843601
999,040405	41,0254707	7,2356658	41,6586609	-10,0023956	6916,9114	1,50361538	-0,0153931472	22,0170231	0,664209366	1	11	0,0100639844	0,000241582049	0,0236397535	0,00416934537	0,0240046121	10,0023956
681,089661	42,5851135	6,16537523	43,0291023	-8,23791313	6917,3619	1,50361228	-0,0151989982	37,9014931	0,778127551	1	11	0,0100529268	0,000233630883	0,0230002869	0,00332992896	0,0232400857	8,23791313
464,553894	43,7750359	5,21618748	44,0847168	-6,79526472	6917,8134	1,50361121	-0,0149919773	65,6796494	0,919519842	1	11	0,010046971	0,000227901444	0,0225242525	0,00268396642	0,0226835981	6,79526472
316,315765	44,6873474	4,45648003	44,9090118	-5,69503546	6918,2624	1,50360906	-0,0148342885	112,903481	1,11179388	1	11	0,0100430604	0,000223631287	0,0221573375	0,00220965734	0,0222672448	5,69503546
215,344498	45,4141464	3,96626973	45,5870171	-4,99129391	6918,7129	1,50361371	-0,0145709449	186,339142	1,41054273	1	11	0,0100420304	0,000220282687	0,0218528863	0,00190853397	0,0219360702	4,99129391
146,737289	46,0089035	3,70395041	46,1577568	-4,60267496	6919,1599	1,50361371	-0,014479558	292,829254	1,88562536	1	11	0,0100378105	0,000217467474	0,0215949658	0,00173850439	0,0216648318	4,60267496
99,9040375	46,5355721	3,71029592	46,6832504	-4,55856752	6919,6114	1,50360942	-0,0142592033	429,366882	2,71221089	1	11	0,0100374045	0,000215010834	0,0213531964	0,00170249713	0,0214209594	4,55856752
68,1888962	47,0534096	3,93974137	47,2180557	-4,78616238	6920,0735	1,50360882	-0,0140818376	592,432312	4,12437344	1	11	0,0100385882	0,000212600629	0,0211044904	0,00176706072	0,0211783387	4,78616238
46,3802681	47,57827	4,46037626	47,7868881	-5,35572147	6920,5123	1,50361335	-0,0139072705	769,334778	6,70256233	1	11	0,0100397617	0,000210094484	0,0208348874	0,00195323257	0,0209262427	5,35572147
31,5869217	48,100235	5,36541748	48,3985558	-6,36483812	6920,9421	1,5036149	-0,0138836773	939,094543	11,5412159	1	11	0,010037682	0,000207396311	0,0205344167	0,00229054433	0,0206617732	6,36483812
21,5220375	48,6607208	6,76798058	49,1291275	-7,91819143	6921,3640	1,50361216	-0,0134721566	1092,64148	20,7356548	1	11	0,0100425445	0,000204411219	0,020160459	0,00280401949	0,0203545243	7,91819143
14,6851501	49,208889	8,82289886	49,9935837	-10,1648331	6921,8245	1,50361502	-0,0132220546	1228,37354	38,2581978	1	11	0,0100358762	0,000200743278	0,0196886081	0,00353006553	0,0200025663	10,1648331
9,9904108	50,1442871	11,9080753	51,5388374	-13,3589287	6922,2754	1,50361156	-0,0130935526	1337,81238	71,4182358	1	11	0,0100402245	0,000194808905	0,0188778359	0,00448303716	0,019402843	13,3589287
6,81718969	51,3401909	16,1892223	53,8322029	-17,501749	6922,6149	1,5036118	-0,0137941558	1442,078	130,423676	1	11	0,0100385295	0,000186478152	0,0177163072	0,00558652449	0,018576242	17,501749
4,63925123	52,3726425	22,1287212	56,8557281	-22,9052467	6923,0997	1,50361228	-0,0128111867	1550,30066	234,844345	1	11	0,0100321844	0,000176449845	0,0162015297	0,00684554223	0,017588377	22,9052467
3,16039586	54,417675	31,5089397	62,8816071	-30,0717144	6923,7937	1,5036186	-0,0126912305	1598,25049	401,296295	1	11	0,0100363232	0,000159606658	0,013762353	0,0079686828	0,0159029011	30,0717144
2,1522038	56,1381035	43,0956726	70,7723389	-37,512455	6925,3080	1,50362492	-0,01251492	1715,94373	636,272705	1	12	0,0100375237	0,00014182835	0,0112080649	0,00860412233	0,0141298138	37,512455
1,46630979	58,9040222	60,9424706	84,7565231	-45,9744415	6926,7695	1,50362301	-0,0122138653	1781,04272	920,806152	1	12	0,0100367395	0,000118418495	0,00819971319	0,00848347507	0,0117985019	45,9744415
0,998529792	61,1614838	84,801384	104,556213	-54,199646	6928,9011	1,50361907	-0,0117653795	1879,55994	1236,40955	1	12	0,0100370767	9,59969402E-005	0,0055947192	0,00775716873	0,00956423301	54,199646