Folder: thesis/Experimentelles/Rohdaten/Batteriemessungen/AlteZelle/Studenten_Batterietests/S+C_LATP_Au/OCV_PEIS/ECLab-Export

Note: README.md
# thesis

Zusammenfassung
---------------
Es konnten die Festkörperelektrolytkeramiken LATP, LAGP, LTO und LLTO hergestellt,
mit XRD und MAS-NMR charakterisiert und zu Elektrodensuspensionen weiterverarbeitet
werden. Aus den Daten der MAS-NMR konnten dabei gegenüber der XRD keine Mehrinfor-
mationen gewonnen werden. Die mit den Suspensionen gegossenen und gestanzten Elektro-
denproben wurden mittels REM und EDX untersucht und als Kathode in Testzellen verbaut.
Mit diesen wurden Ladekennlinien erstellt und eine zyklischer Voltametrie durchgeführt. Aus
den Ladekennlinien konnten die Kapazitäten und der Grad der Lithiuminsertation in die
Materialen bestimmt werden. Die zyklische Voltametrie lieferte nicht-reaktive Spannungsbe-
reiche der Materialien.

Für ein noch besseres Verständnis der Lithiumbewegung und -insertation wurde eine in-situ
NMR-Testzelle konzipiert, konstruiert, gebaut und getestet. Für den Test kam dabei eine
Lithium-Schwefel-Zelle zum Einsatz, für welche ein Di?usionskoe?zient sowie ein Spektrum
vor und nach einer 90 minütigen Ladezeit aufgenommen worden ist.

Abstract
--------
The all solid state electrolyte ceramics LATP, LAGP, LTO, and LLTO were successfully
synthesized and characterized by using XRD. MAS-NMR spectroscopy were not able to ge-
nerate additional information. All powders were processed to electrode slurries, casted on
aluminum foils and punched to electrode samples. Those samples were studied by SEM and
EDX and then build into battery test cells. The cells were analyzed by measuring the charge
curves as well as cyclic voltammetry. With the charge curves capacities and the amount of
lithium insertion were calculated. The cyclic voltammetry was able to detect non-reactive
voltage regions.

To be able to better understand lithium movement and insertion a novel in-situ NMR sample
cell was designed, constructed, built and tested. Therefore, a lithium-sulfur-cell was built into
the in-situ sample cell. With this setting a diffusion coeffcient as well as a NMR spectrum
before and after 90 minutes of charging were measured.

File: Test01_02_PEIS_C03.mpt
EC-Lab ASCII FILE
Nb header lines : 59

Potentio Electrochemical Impedance Spectroscopy

Run on channel : 3 (SN 6987)
Grouped channel(s) : 3
User :
CE vs. WE compliance from -10 V to 10 V
Electrode connection : standard
Ewe ctrl range : min = -10,00 V, max = 10,00 V
Acquisition started on : 02.10.2015 15:28:29
Saved on :
	File : Test01_02_PEIS_C03.mpr
	Directory : C:\Hupfer\Studenten Batterietests\S+C_LATP_Au\OCV_PEIS\
	Host : 192.168.0.2
Device : VMP3 (SN 0324)
Address : 192.168.0.1
EC-Lab for windows v10.33 (software)
Internet server v10.33 (firmware)
Command interpretor v10.32 (firmware)
Electrode material :
Initial state :
Electrolyte :
Comments :
Electrode surface area : 0,001 cm²
Characteristic mass : 0,001 g
Equivalent Weight : 0,000 g/eq.
Density : 0,000 g/cm3
Multi Sine          0
E (V)               0,0000
vs.                 Eoc
tE (h:m:s)          0:00:0,0000
record              0
dI                  0,000
unit dI             mA
dt (s)              0,000
fi                  1,000
unit fi             MHz
ff                  1,000
unit ff             Hz
Sel Nd              1
Nd                  6
Nt                  51
Log                 1
Va (mV)             10,0
pw                  0,10
Na                  2
E range min (V)     -10,000
E range max (V)     10,000
I Range             Auto
Bandwidth           5
corr                0
nc cycles           0
goto Ns'            0
nr cycles           0
inc. cycle          0

freq/Hz	Re(Z)/Ohm	-Im(Z)/Ohm	|Z|/Ohm	Phase(Z)/deg	time/s	<Ewe>/V	<I>/mA	Cs/µF	Cp/µF	cycle number	I Range	|Ewe|/V	|I|/A	Re(Y)/Ohm-1	Im(Y)/Ohm-1	|Y|/Ohm-1	Phase(Y)/deg
1000024,25	251,940201	250,715805	355,432526	-44,8604355	444,4904	-0,00152008154	-0,00295685022	0,000634786789	0,000315847166	1	11	0,00358195393	1,00777324E-005	0,00199426641	0,00198457437	0,00281347358	44,8604355
681286,5	228,285919	224,36264	320,082886	-44,5034103	444,8044	-3,96718424E-005	0,00143719069	0,00104121352	0,000511582824	1	11	0,0102576809	3,20469517E-005	0,0022282002	0,00218990678	0,00312419073	44,5034103
464160,125	274,859009	261,2276	379,192993	-43,5434189	445,2204	2,93220673E-005	0,00144390401	0,00131260254	0,000622946536	1	11	0,0101677757	2,68142503E-005	0,00191156624	0,00181676378	0,00263717957	43,5434189
316223,094	340,402222	306,430481	458,010162	-41,9935799	445,5344	5,07127952E-005	0,00146124896	0,00164245919	0,000735204725	1	11	0,0109745692	2,39614092E-005	0,00162271468	0,00146076968	0,00218335772	41,9935799
215441,859	417,38382	349,475098	544,373108	-39,9394073	446,0824	2,3550816E-005	0,000179644485	0,00211384823	0,000871190161	1	12	0,00937095843	1,7214219E-005	0,00140845263	0,00117929617	0,00183697534	39,9394073
146777,328	510,487091	396,068726	646,117249	-37,8066101	446,3964	3,46650777E-005	0,000204432989	0,00273773004	0,00102874811	1	12	0,0106078899	1,64179019E-005	0,00122281874	0,000948741392	0,00154770666	37,8066101
100024,406	598,30304	443,438995	744,717834	-36,5444069	446,7104	0,000361837068	0,000576224586	0,00358823012	0,0012722268	1	12	0,010571979	1,41959526E-005	0,00107879192	0,000799558708	0,00134279043	36,5444069
68127,4297	698,794128	477,767761	846,50769	-34,3605423	447,0244	4,27447812E-005	0,00019001482	0,00488968985	0,00155759009	1	12	0,0106753577	1,26110581E-005	0,000975185889	0,000666737731	0,00118132413	34,3605423
46411,125	775,510742	537,312256	943,462463	-34,7161331	447,3384	5,03404444E-005	0,00017255648	0,00638221344	0,00207002484	1	12	0,0105947973	1,12296966E-005	0,0008712415	0,00060363923	0,00105992553	34,7161331
31628,4121	846,237427	632,866882	1056,71106	-36,7913361	447,6524	4,64681361E-005	0,000165823061	0,0079511581	0,00285195466	1	12	0,0104699023	9,90800891E-006	0,00075784378	0,000566760893	0,000946332468	36,7913361
21545,4082	910,271301	783,09314	1200,76172	-40,7049294	447,9664	5,48270946E-005	0,000181378826	0,00943304598	0,00401203893	1	12	0,0102461707	8,53305937E-006	0,000631331117	0,000543124916	0,000832804712	40,7049294
14672,8496	971,714539	1018,99194	1408,03894	-46,360466	448,1784	5,4734006E-005	0,000186004487	0,0106447358	0,00557502825	1	12	0,0108490856	7,7051036E-006	0,00049012783	0,000513974286	0,00071020762	46,360466
10015,2705	1042,87708	1372,62854	1723,86243	-52,7736473	448,4306	8,9975656E-005	0,000199042275	0,0115772234	0,00734015554	1	12	0,0108270384	6,28068574E-006	0,000350936025	0,00046189985	0,000580092717	52,7736473
6856,00244	1118,79077	1884,2771	2191,39063	-59,3002472	448,7800	0,000104496772	0,000137732888	0,0123198209	0,00910865609	1	12	0,010646564	4,85835972E-006	0,000232974984	0,000392378453	0,00045633124	59,3002472
4642,42725	1229,33496	2650,39404	2921,61816	-65,1166687	449,2312	8,88120849E-005	0,000161169155	0,0129349455	0,0106448261	1	12	0,00982229039	3,36193511E-006	0,000144020159	0,000310501375	0,000342276064	65,1166687
3160,05566	1395,79309	3747,39136	3998,89746	-69,5711212	450,1422	7,34346031E-005	2,5783791E-005	0,0134399105	0,0118024973	1	13	0,0101269409	2,5324332E-006	8,7285167E-005	0,000234341132	0,00025006893	69,5711212
2152,93286	1606,53674	5303,32959	5541,32324	-73,1468735	450,5937	7,90754857E-005	2,29044617E-005	0,0139393006	0,0127676595	1	13	0,00963630527	1,73898991E-006	5,23195158E-005	0,000172711661	0,000180462317	73,1468735
1468,58972	1944,57959	7522,14746	7769,43311	-75,5055695	451,0447	7,25223508E-005	2,35157731E-005	0,0144071421	0,0135046346	1	13	0,00938881375	1,20842969E-006	3,22141786E-005	0,000124612954	0,000128709522	75,5055695
999,040405	2441,37939	10692,0488	10967,2354	-77,1378174	451,4957	7,12098699E-005	2,41466896E-005	0,0148996534	0,0141613185	1	13	0,00926769059	8,45034378E-007	2,02974297E-005	8,88928116E-005	9,11806856E-005	77,1378174
681,089661	3208,9353	15157,4238	15493,3779	-78,0465698	451,9462	7,08096049E-005	2,28288282E-005	0,0154166659	0,0147553328	1	13	0,00920844451	5,94347114E-007	1,33680714E-005	6,3144158E-005	6,4543703E-005	78,0465698
464,553894	4409,70898	21312,8906	21764,3027	-78,310257	452,3977	7,2596813E-005	2,13299045E-005	0,0160746556	0,0154147632	1	13	0,00917781144	4,21691027E-007	9,30937222E-006	4,49938161E-005	4,59467956E-005	78,310257
316,315765	6262,33936	30450,3418	31087,6211	-78,3787308	453,0907	7,31832479E-005	1,81549581E-006	0,0165236928	0,0158531833	1	14	0,00931255892	2,99558423E-007	6,47979914E-006	3,15077341E-005	3,21671432E-005	78,3787308
215,344498	9234,0166	42858,8711	43842,3281	-77,8413849	453,5412	7,1070237E-005	2,56095268E-006	0,0172443017	0,0164793413	1	14	0,00922556408	2,10425966E-007	4,80400467E-006	2,22973631E-005	2,28090084E-005	77,8413849
146,737289	13874,167	59877,4609	61463,832	-76,9542542	453,9882	7,49052997E-005	2,0354089E-006	0,0181140788	0,0171911027	1	14	0,00919058081	1,49528276E-007	3,67254893E-006	1,58498115E-005	1,62697306E-005	76,9542542
99,9040375	21265,5781	83840,8281	86495,7188	-75,7675171	454,4397	7,31273904E-005	2,25327221E-006	0,0190012231	0,0178526808	1	14	0,00917219836	1,06042222E-007	2,84241764E-006	1,12064054E-005	1,15612656E-005	75,7675171
68,1888962	33584,8945	114778,555	119591,227	-73,6902084	454,9019	7,38162198E-005	1,69975056E-006	0,0203350708	0,0187313277	1	14	0,00916161854	7,66077832E-008	2,34825507E-006	8,02531486E-006	8,36181698E-006	73,6902084
46,3802681	52960,2813	158792,984	167391,766	-71,555542	455,3406	7,01207682E-005	2,33263813E-006	0,0216100402	0,0194468815	1	14	0,00915803388	5,47101813E-008	1,89008824E-006	5,6671297E-006	5,97400958E-006	71,555542
31,5869217	82785,1172	211193,609	226839,406	-68,5954742	455,7705	6,55689582E-005	2,24357086E-006	0,0238578916	0,0206802897	1	14	0,0091568334	4,03670306E-008	1,60884883E-006	4,10434404E-006	4,40840495E-006	68,5954742
21,5220375	133402,938	272368,844	303283,906	-63,9049492	456,1924	6,73841059E-005	1,92544758E-006	0,0271505937	0,0218975469	1	14	0,00915737357	3,01940624E-008	1,45032948E-006	2,96113808E-006	3,29724048E-006	63,9049492
14,6851501	207609,766	346403,281	403852,75	-59,0644913	456,6528	7,09212982E-005	1,77426693E-006	0,0312867016	0,0230185334	1	14	0,00915605668	2,26717702E-008	1,27292174E-006	2,12390887E-006	2,47615003E-006	59,0644913
9,9904108	298822,281	424428,469	519070,594	-54,8522301	457,1037	6,36793557E-005	2,1619644E-006	0,037534643	0,0250950716	1	14	0,00915365294	1,76346973E-008	1,10907308E-006	1,5752579E-006	1,92652033E-006	54,8522301
6,81718969	444094,906	466181,688	643852,188	-46,3899422	457,4432	7,01300814E-005	2,62343428E-006	0,0500794463	0,0262541287	1	14	0,00915282033	1,42157166E-008	1,07128108E-006	1,12456053E-006	1,55315149E-006	46,3899422
4,63925123	629413,25	546098,688	833297,563	-40,9459343	457,9281	7,83494106E-005	1,72623572E-006	0,0628204569	0,026980076	1	14	0,00915027689	1,09808038E-008	9,06432888E-007	7,86449675E-007	1,20005154E-006	40,9459343
3,16039586	814037,125	538165,438	975847,563	-33,4689598	458,6220	7,93580475E-005	1,65684787E-006	0,0935756415	0,028459711	1	14	0,00915196724	9,37848021E-009	8,54830944E-007	5,65134485E-007	1,02475019E-006	33,4689598
2,1522038	990572,125	495980,656	1107804,13	-26,5971832	459,6273	8,78535138E-005	1,02213141E-006	0,149098054	0,0298865307	1	14	0,00915384479	8,26305335E-009	8,07160973E-007	4,04146476E-007	9,02686679E-007	26,5971832
1,46630979	1045034,06	422294,75	1127133,13	-22,0034676	461,0888	8,5249274E-005	1,06373579E-006	0,257027	0,0360794291	1	14	0,00915296562	8,12057177E-009	8,22583559E-007	3,32403232E-007	8,87206625E-007	22,0034676
0,998529792	1149169,88	323285,469	1193777,63	-15,7123995	463,2216	9,33516858E-005	1,09724897E-006	0,493029505	0,0361575037	1	14	0,0091529768	7,66723751E-009	8,06375624E-007	2,26850275E-007	8,37676964E-007	15,7123995