Folder: thesis/Experimentelles/Ausgewaehlte_Daten/Gefuege/PEIS

Note: Experimentelles/Ausgewaehlte_Daten/Gefuege/PEIS/LTO_LLTO_Li_C03.txt
1000024,25	3437,58154	-4289,90869
857690,25	2390,42236	-4290,96973
735644,375	2021,7395	-5306,50928
630956,938	2018,51782	-6585,20117
541174,25	2274,75879	-7957,13086
464160,125	2659,26636	-9322,62793
398107,875	3042,34326	-10756,958
341455,031	3457,45605	-12349,8564
292858,844	3862,44238	-14188,9209
251184,063	4325,16309	-16336,3545
215441,859	4972,37354	-18773,8086
184790,016	5752,75342	-21565,9023
158483,859	6746,31055	-24740,7773
135937,484	7991,15039	-28315,3652
116589,344	9540,72363	-32297,0781
100024,406	11809,6006	-37335,9961
85766,5938	13703,542	-41586,3945
73559,5625	16494,6191	-46935,8125
63098,1406	22197,1973	-55798,5508
54113,7617	26178,7383	-62206,8047
46411,125	30880,9785	-69097,1172
39807,1211	36353,4766	-76474,9766
34143,0586	42637,7461	-84320,4531
29284,6641	49831,6758	-92466,0703
25122,0645	57672,4453	-100457,992
21545,4082	66261,1406	-109665,633
18481,4395	75405,5625	-118853,453
15844,7236	85188,3828	-128263,141
13598,6318	95433,6719	-138171,406
11684,4844	106091,016	-148576,141
10015,2705	117064,539	-160100,344
8575,30859	128288,578	-173068,406
7373,67188	140055,984	-186794,703
6332,95215	152151,672	-202418,344
5410,68311	165197,313	-220605,313
4642,42725	179678,859	-240340,453
3981,17749	193184,109	-262691,281
3416,71924	208805,984	-288208,875
2927,18945	225448,125	-317371,719
2514,02173	243056,859	-349324,719
2152,93286	264263,031	-385658,25
1848,22571	288951,563	-430196,219
1583,47974	312326,188	-471758
1358,69531	333282,844	-525451,75
1166,86707	367787,781	-587335,875
999,040405	394820,125	-646916,438
856,983215	432730,625	-720905,375
736,177612	473668,219	-800574,688
631,009521	517843,875	-897859,375
540,865295	569754	-1001854,94
464,553894	630796,688	-1118896,13
398,596863	694729,5	-1248232
341,420197	763114,75	-1393811,38
293,217133	810311,938	-1617398
251,044281	938754,75	-1738352
215,344498	1051394,88	-1924357,88
184,822571	1174389,5	-2182080,75
158,629395	1312666,88	-2410784,75
135,913315	1399814,63	-2613896,5
116,680138	1674447,63	-3006863
99,9040375	1887091,13	-3282074,75
85,7961807	2112513	-3771017
73,6102219	2464023,5	-4087493,5
63,1607475	2720557,75	-4393960,5
54,1167984	3062380,75	-4771573,5
46,3802681	3423089,25	-5220646
39,859684	4016114,5	-5978127,5
34,1796799	4276648	-6368489
29,2968674	4765464	-7176776
25,1044273	5649759	-7793179,5
21,5220375	6009772	-8306930,5
18,469265	8600037	-10973820
15,8361454	7942098,5	-9636037
13,5948315	9730163	-9732367
11,660449	9839670	-10198515
9,9904108	12824672	-11297200
8,58516407	12160506	-13136712
7,35640526	18412502	-9997315
6,31058121	16786652	-11373875
5,4103179	15933558	-12774362
4,63925123	19193594	-10612489
3,98190546	20791162	-13549166
3,41754079	22950278	-10826723
2,93261957	23546728	-12281365
2,51044273	27259616	-10819776
2,1522038	27018846	-11292372
1,84955001	26124008	-9299870
1,5853287	29237206	-9297796
1,36011457	29681076	-10560754
1,16604424	30518772	-9557542
0,998529792	31498168	-8381362,5

Note: README.md
# thesis

Zusammenfassung
---------------
Es konnten die Festkörperelektrolytkeramiken LATP, LAGP, LTO und LLTO hergestellt,
mit XRD und MAS-NMR charakterisiert und zu Elektrodensuspensionen weiterverarbeitet
werden. Aus den Daten der MAS-NMR konnten dabei gegenüber der XRD keine Mehrinfor-
mationen gewonnen werden. Die mit den Suspensionen gegossenen und gestanzten Elektro-
denproben wurden mittels REM und EDX untersucht und als Kathode in Testzellen verbaut.
Mit diesen wurden Ladekennlinien erstellt und eine zyklischer Voltametrie durchgeführt. Aus
den Ladekennlinien konnten die Kapazitäten und der Grad der Lithiuminsertation in die
Materialen bestimmt werden. Die zyklische Voltametrie lieferte nicht-reaktive Spannungsbe-
reiche der Materialien.

Für ein noch besseres Verständnis der Lithiumbewegung und -insertation wurde eine in-situ
NMR-Testzelle konzipiert, konstruiert, gebaut und getestet. Für den Test kam dabei eine
Lithium-Schwefel-Zelle zum Einsatz, für welche ein Di?usionskoe?zient sowie ein Spektrum
vor und nach einer 90 minütigen Ladezeit aufgenommen worden ist.

Abstract
--------
The all solid state electrolyte ceramics LATP, LAGP, LTO, and LLTO were successfully
synthesized and characterized by using XRD. MAS-NMR spectroscopy were not able to ge-
nerate additional information. All powders were processed to electrode slurries, casted on
aluminum foils and punched to electrode samples. Those samples were studied by SEM and
EDX and then build into battery test cells. The cells were analyzed by measuring the charge
curves as well as cyclic voltammetry. With the charge curves capacities and the amount of
lithium insertion were calculated. The cyclic voltammetry was able to detect non-reactive
voltage regions.

To be able to better understand lithium movement and insertion a novel in-situ NMR sample
cell was designed, constructed, built and tested. Therefore, a lithium-sulfur-cell was built into
the in-situ sample cell. With this setting a diffusion coeffcient as well as a NMR spectrum
before and after 90 minutes of charging were measured.

File: LTO_LLTO_Li_C03.mpt
EC-Lab ASCII FILE
Nb header lines : 65

Potentio Electrochemical Impedance Spectroscopy

Run on channel : 3 (SN 6987)
Grouped channel(s) : 3
User :
CE vs. WE compliance from -10 V to 10 V
Electrode connection : standard
Ewe ctrl range : min = -10,00 V, max = 10,00 V
Acquisition started on : 08/10/2015 12:23:45
Saved on :
	File : LTO_LLTO_Li_C03.mpr
	Directory : C:\Gielisch\ASS\LTO_LLTO_Li\05\
	Host : 192.168.0.2
Device : VMP3 (SN 03240324)
Address : 192.168.0.1
EC-Lab for windows v10.33 (software)
Internet server v10.33 (firmware)
Command interpretor v10.32 (firmware)
Electrode material :
Initial state :
Electrolyte :
Comments :
Mass of active material : 0,001 mg
 at x = 0,000
Molecular weight of active material (at x = 0) : 0,001 g/mol
Atomic weight of intercalated ion : 0,001 g/mol
Acquisition started at : xo = 0,000
Number of e- transfered per intercalated ion : 1
for DX = 1, DQ = 26,801 mA.h
Battery capacity : 0,000 A.h
Electrode surface area : 0,001 cm²
Characteristic mass : 0,001 g
Multi Sine          0
E (V)               0,0000
vs.                 Eoc
tE (h:m:s)          0:00:0,0000
record              0
dI                  0,000
unit dI             mA
dt (s)              0,000
fi                  1,000
unit fi             MHz
ff                  1,000
unit ff             Hz
Sel Nd              1
Nd                  15
Nt                  51
Log                 1
Va (mV)             100,0
pw                  0,10
Na                  2
E range min (V)     -10,000
E range max (V)     10,000
I Range             Auto
Bandwidth           5
corr                0
nc cycles           0
goto Ns'            0
nr cycles           0
inc. cycle          0

freq/Hz	Re(Z)/Ohm	-Im(Z)/Ohm	|Z|/Ohm	Phase(Z)/deg	time/s	<Ewe>/V	<I>/mA	Cs/µF	Cp/µF	cycle number	I Range	|Ewe|/V	|I|/A	Re(Y)/Ohm-1	Im(Y)/Ohm-1	|Y|/Ohm-1	Phase(Y)/deg
1000024,25	3437,58154	4289,90869	5497,29785	-51,2941704	2,6426	0,382697999	-0,000576764985	3,70989474E-005	2,25922304E-005	1	13	0,00253733946	4,615612E-007	0,000113750808	0,000141954617	0,000181907555	51,2941704
735644,375	2021,7395	5306,50928	5678,59766	-69,1435394	5,1066	0,383959681	1,10755582E-005	4,07702428E-005	3,56023738E-005	1	13	0,00853946526	1,50379822E-006	6,26964611E-005	0,00016456093	0,000176099813	69,1435394
541174,25	2274,75879	7957,13086	8275,89648	-74,0459976	7,5706	0,384147763	1,32408913E-005	3,69595364E-005	3,41672021E-005	1	13	0,0196443312	2,37368022E-006	3,3212782E-005	0,000116178671	0,000120832832	74,0459976
398107,875	3042,34326	10756,958	11178,9082	-74,2077408	10,0346	0,384211272	1,75547266E-005	3,71646383E-005	3,44120126E-005	1	13	0,0365482941	3,26939744E-006	2,43449758E-005	8,60777072E-005	8,94541736E-005	74,2077408
292858,844	3862,44238	14188,9209	14705,2354	-74,7721863	12,4986	0,384191066	7,89667592E-006	3,83012048E-005	3,56588389E-005	1	13	0,0601028986	4,08717688E-006	1,78615028E-005	6,56153425E-005	6,80029916E-005	74,7721863
215441,859	4972,37354	18773,8086	19421,1328	-75,1654358	13,9426	0,384133726	8,40439589E-006	3,93493574E-005	3,67699722E-005	1	13	0,0915925428	4,71612793E-006	1,31830084E-005	4,97740875E-005	5,1490304E-005	75,1654358
158483,859	6746,31055	24740,7773	25644,0781	-74,7474136	14,5706	0,384138107	7,98436849E-006	4,05902538E-005	3,7781072E-005	1	13	0,102109082	3,98178008E-006	1,02586946E-005	3,76217613E-005	3,89953566E-005	74,7474136
116589,344	9540,72363	32297,0781	33676,7969	-73,5425873	15,1986	0,384096026	6,71874841E-006	4,22666708E-005	3,88743356E-005	1	13	0,102158174	3,03348838E-006	8,41239762E-006	2,84774887E-005	2,96940361E-005	73,5425873
85766,5938	13703,542	41586,3945	43786,0156	-71,7619247	15,8266	0,384113044	8,53685106E-006	4,46221748E-005	4,02515325E-005	1	13	0,102014333	2,32983825E-006	7,14762746E-006	2,16910412E-005	2,28383415E-005	71,7619247
63098,1406	22197,1973	55798,5508	60051,5938	-68,3068619	16,6886	0,384144276	-1,62122703E-007	4,52043932E-005	3,90280984E-005	1	14	0,098029308	1,63241805E-006	6,15529871E-006	1,54729769E-005	1,66523478E-005	68,3068619
46411,125	30880,9785	69097,1172	75683,8594	-65,9191132	17,2146	0,384157211	-1,23224254E-006	4,9629296E-005	4,13667549E-005	1	14	0,101974502	1,34737445E-006	5,3911881E-006	1,20629466E-005	1,32128571E-005	65,9191132
34143,0586	42637,7461	84320,4531	94487,6484	-63,1759567	17,7406	0,384160012	-1,1665951E-006	5,52821257E-005	4,40251206E-005	1	14	0,108834043	1,15183354E-006	4,77577851E-006	9,44458407E-006	1,05833942E-005	63,1759567
25122,0645	57672,4453	100457,992	115835,742	-60,1400757	18,2666	0,384146303	-1,04125013E-006	6,30638242E-005	4,74312001E-005	1	14	0,107102253	9,24604535E-007	4,298166E-006	7,48685306E-006	8,6329137E-006	60,1400757
18481,4395	75405,5625	118853,453	140755,609	-57,6072617	18,7926	0,384143293	-5,68219718E-007	7,24556958E-005	5,16612272E-005	1	14	0,10479176	7,44494344E-007	3,80602773E-006	5,99902069E-006	7,10451241E-006	57,6072617
13598,6318	95433,6719	138171,406	167925,344	-55,3675308	19,3186	0,384144098	-1,2589378E-006	8,47045521E-005	5,73469842E-005	1	14	0,101026103	6,01613181E-007	3,38430209E-006	4,89988224E-006	5,95502706E-006	55,3675308
10015,2705	117064,539	160100,344	198333,625	-53,8259239	19,7928	0,384168088	-1,06233995E-006	9,92579226E-005	6,46780609E-005	1	14	0,103887543	5,23801987E-007	2,97599809E-006	4,07004836E-006	5,04200943E-006	53,8259239
7373,67188	140055,984	186794,703	233469,359	-53,1379623	20,4057	0,384166628	-5,02012313E-007	0,00011555048	7,39675233E-005	1	14	0,105178438	4,50502114E-007	2,56946009E-006	3,42692624E-006	4,28321709E-006	53,1379623
5410,68311	165197,313	220605,313	275602,719	-53,1727905	21,2072	0,384174705	-6,66625283E-007	0,000133337424	8,54312966E-005	1	14	0,097388722	3,53366318E-007	2,17488332E-006	2,90435014E-006	3,62841115E-006	53,1727905
3981,17749	193184,109	262691,281	326077,906	-53,6691017	22,1099	0,384179711	-4,13322084E-007	0,000152181878	9,87669191E-005	1	14	0,100303039	3,07604523E-007	1,81689006E-006	2,47060257E-006	3,06675179E-006	53,6691017
2927,18945	225448,125	317371,719	389296,375	-54,6115417	23,0119	0,384180188	-1,14003524E-006	0,000171317239	0,000113861475	1	14	0,102161951	2,62427193E-007	1,48759921E-006	2,09414861E-006	2,56873705E-006	54,6115417
2152,93286	264263,031	385658,25	467511,75	-55,5800476	23,9139	0,384176224	-1,17333138E-006	0,000191684507	0,000130438915	1	14	0,103022665	2,20363802E-007	1,20906975E-006	1,76448339E-006	2,13898375E-006	55,5800476
1583,47974	312326,188	471758	565776,688	-56,4935493	24,8159	0,384179533	-1,24383973E-006	0,000213053339	0,000148127874	1	14	0,103418127	1,82789648E-007	9,75704438E-007	1,47376818E-006	1,76748176E-006	56,4935493
1166,86707	367787,781	587335,875	692987,188	-57,9453392	25,7174	0,384175837	-1,08781012E-006	0,000232226739	0,000166814905	1	14	0,103593677	1,49488585E-007	7,65855532E-007	1,2230272E-006	1,44302817E-006	57,9453392
856,983215	432730,625	720905,375	840809,313	-59,0252914	26,6214	0,384172976	-8,93075764E-007	0,00025761404	0,000189378668	1	14	0,103666909	1,232942E-007	6,12100337E-007	1,01972535E-006	1,18933031E-006	59,0252914
631,009521	517843,875	897859,375	1036491,06	-60,0256348	27,5234	0,384176195	-1,01814317E-006	0,000280915614	0,000210795537	1	14	0,103701703	1,00050748E-007	4,82022983E-007	8,35751564E-007	9,64793685E-007	60,0256348
464,553894	630796,688	1118896,13	1284458,25	-60,5871315	28,4259	0,384178102	-8,30869908E-007	0,00030619232	0,000232345265	1	14	0,103711501	8,07433764E-008	3,82339721E-007	6,78187462E-007	7,78538322E-007	60,5871315
341,420197	763114,75	1393811,38	1589041,88	-61,2991982	29,3279	0,384186447	-5,95751942E-007	0,000334446726	0,000257314503	1	14	0,103715673	6,52693117E-008	3,02217188E-007	5,51992628E-007	6,29310023E-007	61,2991982
251,044281	938754,75	1738352	1975633,63	-61,6298141	30,2309	0,384186745	-1,00219597E-006	0,000364696869	0,000282354478	1	14	0,103722848	5,25010542E-008	2,4051343E-007	4,45374042E-007	5,06166714E-007	61,6298141
184,822571	1174389,5	2182080,75	2478037	-61,7109909	31,1329	0,38418147	-3,30882841E-007	0,000394633826	0,000305999274	1	14	0,103718884	4,18552624E-008	1,91247864E-007	3,5534913E-007	4,03545215E-007	61,7109909
135,913315	1399814,63	2613896,5	2965120	-61,8297081	32,0364	0,38417995	-2,13553835E-006	0,000447991421	0,000348146423	1	14	0,103713706	3,49779121E-008	1,5921573E-007	2,97306116E-007	3,37254477E-007	61,8297081
99,9040375	1887091,13	3282074,75	3785911,75	-60,1024323	32,9329	0,384175807	-9,87180783E-007	0,000485387543	0,000364791398	1	14	0,103714712	2,73949095E-008	1,31659419E-007	2,28985229E-007	2,64137157E-007	60,1024323
73,6102219	2464023,5	4087493,5	4772736,5	-58,9175797	33,8385	0,384178013	-7,70435634E-007	0,000528962584	0,000387975393	1	14	0,103712827	2,17302638E-008	1,08170774E-007	1,79441187E-007	2,09523407E-007	58,9175797
54,1167984	3062380,75	4771573,5	5669752	-57,3077812	34,7600	0,384180039	-6,98435827E-007	0,000616348581	0,000436537463	1	14	0,103713453	1,82924147E-008	9,52644896E-008	1,48434026E-007	1,76374556E-007	57,3077812
39,859684	4016114,5	5978127,5	7201887,5	-56,106739	35,6514	0,384184867	-8,35160847E-007	0,000667914865	0,000460212905	1	14	0,10370969	1,44003485E-008	7,74307409E-008	1,15258374E-007	1,38852485E-007	56,106739
29,2968674	4765464	7176776	8614857	-56,4153709	36,5735	0,38418588	-1,46236016E-006	0,000756954076	0,000525329961	1	14	0,103712782	1,20388286E-008	6,42109441E-008	9,67015126E-008	1,16078539E-007	56,4153709
21,5220375	6009772	8306930,5	10252924	-54,1155853	37,4446	0,384185195	-1,06179243E-006	0,000890217663	0,000584361842	1	14	0,103714615	1,01156132E-008	5,71692524E-008	7,90214685E-008	9,75331531E-008	54,1155853
15,8361454	7942098,5	9636037	12487199	-50,5043831	38,3592	0,384184867	-6,06757794E-007	0,00104297092	0,000621067884	1	14	0,103710383	8,30533597E-009	5,09336964E-008	6,17971452E-008	8,00820104E-008	50,5043831
11,660449	9839670	10198515	14171408	-46,0259476	39,2462	0,384174883	-3,63152822E-007	0,00133834453	0,000693131762	1	14	0,103715286	7,3186297E-009	4,89953109E-008	5,07821305E-008	7,05646173E-008	46,0259476
8,58516407	12160506	13136712	17901148	-47,2099152	40,2177	0,384183049	-8,59036334E-007	0,00141118793	0,000759969989	1	14	0,103710532	5,79351322E-009	3,79480873E-008	4,09944363E-008	5,58623405E-008	47,2099152
6,31058121	16786652	11373875	20277000	-34,1197853	40,9012	0,384189039	-1,52643179E-006	0,00221739127	0,000697672833	1	14	0,103709571	5,11464071E-009	4,08278673E-008	2,76631109E-008	4,93169594E-008	34,1197853
4,63925123	19193594	10612489	21932144	-28,9390087	41,8053	0,384194136	-1,00434204E-006	0,00323262275	0,000756880501	1	14	0,103707567	4,7285651E-009	3,9901952E-008	2,20625189E-008	4,55951792E-008	28,9390087
3,41754079	22950278	10826723	25375838	-25,2554512	43,0074	0,384186834	-8,05936622E-007	0,00430139573	0,000783001655	1	14	0,103709303	4,08693124E-009	3,56407774E-008	1,68134271E-008	3,9407567E-008	25,2554512
2,51044273	27259616	10819776	29328386	-21,6489162	44,6192	0,384174973	-7,35881656E-007	0,00585937873	0,000797465211	1	14	0,103711598	3,5362191E-009	3,16915454E-008	1,25788793E-008	3,40966615E-008	21,6489162
1,84955001	26124008	9299870	27729972	-19,595192	46,7866	0,384186983	-4,47183197E-007	0,00925288536	0,00104071561	1	14	0,103713751	3,74013176E-009	3,39735493E-008	1,20942243E-008	3,60620618E-008	19,595192
1,36011457	29681076	10560754	31503902	-19,5859489	49,7142	0,384191871	-6,3478501E-007	0,0110802539	0,00124511903	1	14	0,10370902	3,29194205E-009	2,99054932E-008	1,0640604E-008	3,17421005E-008	19,5859489
0,998529792	31498168	8381362,5	32594200	-14,9005909	53,6756	0,38418898	-7,91513457E-007	0,0190171096	0,00125745684	1	14	0,103710964	3,18188409E-009	2,96486302E-008	7,88921817E-009	3,06803045E-008	14,9005909