Folder: thesis/Experimentelles/Rohdaten/REM_EDX/EDX/LTO

Note: README.md
# thesis

Zusammenfassung
---------------
Es konnten die Festkörperelektrolytkeramiken LATP, LAGP, LTO und LLTO hergestellt,
mit XRD und MAS-NMR charakterisiert und zu Elektrodensuspensionen weiterverarbeitet
werden. Aus den Daten der MAS-NMR konnten dabei gegenüber der XRD keine Mehrinfor-
mationen gewonnen werden. Die mit den Suspensionen gegossenen und gestanzten Elektro-
denproben wurden mittels REM und EDX untersucht und als Kathode in Testzellen verbaut.
Mit diesen wurden Ladekennlinien erstellt und eine zyklischer Voltametrie durchgeführt. Aus
den Ladekennlinien konnten die Kapazitäten und der Grad der Lithiuminsertation in die
Materialen bestimmt werden. Die zyklische Voltametrie lieferte nicht-reaktive Spannungsbe-
reiche der Materialien.

Für ein noch besseres Verständnis der Lithiumbewegung und -insertation wurde eine in-situ
NMR-Testzelle konzipiert, konstruiert, gebaut und getestet. Für den Test kam dabei eine
Lithium-Schwefel-Zelle zum Einsatz, für welche ein Di?usionskoe?zient sowie ein Spektrum
vor und nach einer 90 minütigen Ladezeit aufgenommen worden ist.

Abstract
--------
The all solid state electrolyte ceramics LATP, LAGP, LTO, and LLTO were successfully
synthesized and characterized by using XRD. MAS-NMR spectroscopy were not able to ge-
nerate additional information. All powders were processed to electrode slurries, casted on
aluminum foils and punched to electrode samples. Those samples were studied by SEM and
EDX and then build into battery test cells. The cells were analyzed by measuring the charge
curves as well as cyclic voltammetry. With the charge curves capacities and the amount of
lithium insertion were calculated. The cyclic voltammetry was able to detect non-reactive
voltage regions.

To be able to better understand lithium movement and insertion a novel in-situ NMR sample
cell was designed, constructed, built and tested. Therefore, a lithium-sulfur-cell was built into
the in-situ sample cell. With this setting a diffusion coeffcient as well as a NMR spectrum
before and after 90 minutes of charging were measured.

File: Spektrum.txt
Bruker Nano GmbH Berlin, Germany
Esprit 1.9

Datum: 11.09.2015 19:25:07
Real-Zeit: 178904
Life-Zeit: 155414
Impulsdichte: 26495

Primärenergie: 10
Abnahmewinkel: 35
Kippungwinkel: 0
Azimutwinkel: 45

Detektor-Typ: XFlash 6|30
Fenster-Typ: slew AP3.3
Detektordicke: 0.45
Si-Totschicht:0.029

Kalibrierung, lin.: 2.501
Kalibrierung, abs.: -238.74
Mn-FWHM: 123.24
Fano-Faktor: 0.106
Kanäle: 4096

Energie Impulse
-0.2387     0
-0.2037     0
-0.1687     0
-0.1337     0
-0.0987     1
-0.0637    78
-0.0286 11871
 0.0064 41776
 0.0414  2934
 0.0764    36
 0.1114    67
 0.1464     0
 0.1815   216
 0.2165  3082
 0.2515 39538
 0.2865 71686
 0.3215 11009
 0.3565   708
 0.3916  1125
 0.4266  1282
 0.4616  1814
 0.4966  5896
 0.5316 11142
 0.5666  3089
 0.6017   689
 0.6367  1139
 0.6717  2646
 0.7067  1914
 0.7417   811
 0.7767   793
 0.8118   856
 0.8468   877
 0.8818   830
 0.9168  1036
 0.9518  1041
 0.9868   954
 1.0219   933
 1.0569   980
 1.0919   924
 1.1269   897
 1.1619   935
 1.1969   892
  1.232   982
  1.267  1007
  1.302  1020
  1.337  1001
  1.372  1077
 1.4071  1819
 1.4421  9912
 1.4771 27595
 1.5121 23184
 1.5471  6635
 1.5821  1681
 1.6172   875
 1.6522   698
 1.6872   727
 1.7222   869
 1.7572   929
 1.7922   733
 1.8273   565
 1.8623   576
 1.8973   528
 1.9323   564
 1.9673   568
 2.0023   584
 2.0374   576
 2.0724   559
 2.1074   555
 2.1424   548
 2.1774   553
 2.2124   519
 2.2475   513
 2.2825   486
 2.3175   488
 2.3525   479
 2.3875   469
 2.4225   470
 2.4576   416
 2.4926   432
 2.5276   410
 2.5626   389
 2.5976   403
 2.6326   387
 2.6677   391
 2.7027   391
 2.7377   388
 2.7727   395
 2.8077   342
 2.8427   355
 2.8778   370
 2.9128   395
 2.9478   399
 2.9828   426
 3.0178   342
 3.0528   326
 3.0879   323
 3.1229   314
 3.1579   318
 3.1929   287
 3.2279   287
 3.2629   307
  3.298   282
  3.333   290
  3.368   271
  3.403   270
  3.438   264
  3.473   247
 3.5081   251
 3.5431   262
 3.5781   258
 3.6131   249
 3.6481   254
 3.6831   237
 3.7182   250
 3.7532   223
 3.7882   225
 3.8232   244
 3.8582   233
 3.8932   227
 3.9283   212
 3.9633   205
 3.9983   205
 4.0333   198
 4.0683   183
 4.1033   189
 4.1384   196
 4.1734   187
 4.2084   196
 4.2434   185
 4.2784   178
 4.3134   179
 4.3485   209
 4.3835   284
 4.4185   683
 4.4535  1590
 4.4885  2692
 4.5235  2708
 4.5586  1632
 4.5936   713
 4.6286   270
 4.6636   174
 4.6986   157
 4.7336   168
 4.7687   164
 4.8037   190
 4.8387   213
 4.8737   309
 4.9087   431
 4.9437   459
 4.9788   370
 5.0138   203
 5.0488   146
 5.0838   117
 5.1188   128
 5.1538   127
 5.1889   121
 5.2239   112
 5.2589   111
 5.2939   120
 5.3289   114
 5.3639   100
  5.399   109
  5.434   106
  5.469   103
  5.504    94
  5.539    96
  5.574    88
 5.6091    93
 5.6441    99
 5.6791   103
 5.7141   100
 5.7491    85
 5.7842    99
 5.8192   113
 5.8542   107
 5.8892   107
 5.9242    96
 5.9592    93
 5.9943    86
 6.0293    87
 6.0643    93
 6.0993    94
 6.1343    70
 6.1693    67
 6.2044    81
 6.2394    92
 6.2744    79
 6.3094    76
 6.3444    92
 6.3794    77
 6.4145    76
 6.4495    83
 6.4845    61
 6.5195    59
 6.5545    66
 6.5895    49
 6.6246    59
 6.6596    63
 6.6946    56
 6.7296    53
 6.7646    65
 6.7996    58
 6.8347    49
 6.8697    67
 6.9047    55
 6.9397    47
 6.9747    60
 7.0097    42
 7.0448    52
 7.0798    45
 7.1148    45
 7.1498    57
 7.1848    48
 7.2198    42
 7.2549    44
 7.2899    41
 7.3249    48
 7.3599    39
 7.3949    42
 7.4299    37
  7.465    35
    7.5    51
  7.535    33
   7.57    40
  7.605    38
   7.64    37
 7.6751    39
 7.7101    35
 7.7451    43
 7.7801    36
 7.8151    31
 7.8501    30
 7.8852    19
 7.9202    26
 7.9552    40
 7.9902    32
 8.0252    36
 8.0602    37
 8.0953    33
 8.1303    24
 8.1653    16
 8.2003    33
 8.2353    21
 8.2703    26
 8.3054    20
 8.3404    25
 8.3754    27
 8.4104    20
 8.4454    24
 8.4804    26
 8.5155    17
 8.5505    17
 8.5855    23
 8.6205    14
 8.6555    15
 8.6905    14
 8.7256    17
 8.7606    15
 8.7956    10
 8.8306    13
 8.8656     9
 8.9006    13
 8.9357    10
 8.9707    10
 9.0057    11
 9.0407    18
 9.0757     8
 9.1107     7
 9.1458     7
 9.1808     9
 9.2158    10
 9.2508    11
 9.2858     7
 9.3208     7
 9.3559     8
 9.3909     8
 9.4259     4
 9.4609     4
 9.4959     7
 9.5309     7
  9.566     8
  9.601     4
  9.636     5
  9.671     4
  9.706     3
  9.741     2
 9.7761     2
 9.8111     2
 9.8461     0
 9.8811     0
 9.9161     1
 9.9511     2
 9.9862     2
10.0037     0