Folder: thesis/Experimentelles/Rohdaten/Batteriemessungen/AlteZelle/Batterietest Li vs LATP/ECLab-Export

Note: README.md
# thesis

Zusammenfassung
---------------
Es konnten die Festkörperelektrolytkeramiken LATP, LAGP, LTO und LLTO hergestellt,
mit XRD und MAS-NMR charakterisiert und zu Elektrodensuspensionen weiterverarbeitet
werden. Aus den Daten der MAS-NMR konnten dabei gegenüber der XRD keine Mehrinfor-
mationen gewonnen werden. Die mit den Suspensionen gegossenen und gestanzten Elektro-
denproben wurden mittels REM und EDX untersucht und als Kathode in Testzellen verbaut.
Mit diesen wurden Ladekennlinien erstellt und eine zyklischer Voltametrie durchgeführt. Aus
den Ladekennlinien konnten die Kapazitäten und der Grad der Lithiuminsertation in die
Materialen bestimmt werden. Die zyklische Voltametrie lieferte nicht-reaktive Spannungsbe-
reiche der Materialien.

Für ein noch besseres Verständnis der Lithiumbewegung und -insertation wurde eine in-situ
NMR-Testzelle konzipiert, konstruiert, gebaut und getestet. Für den Test kam dabei eine
Lithium-Schwefel-Zelle zum Einsatz, für welche ein Di?usionskoe?zient sowie ein Spektrum
vor und nach einer 90 minütigen Ladezeit aufgenommen worden ist.

Abstract
--------
The all solid state electrolyte ceramics LATP, LAGP, LTO, and LLTO were successfully
synthesized and characterized by using XRD. MAS-NMR spectroscopy were not able to ge-
nerate additional information. All powders were processed to electrode slurries, casted on
aluminum foils and punched to electrode samples. Those samples were studied by SEM and
EDX and then build into battery test cells. The cells were analyzed by measuring the charge
curves as well as cyclic voltammetry. With the charge curves capacities and the amount of
lithium insertion were calculated. The cyclic voltammetry was able to detect non-reactive
voltage regions.

To be able to better understand lithium movement and insertion a novel in-situ NMR sample
cell was designed, constructed, built and tested. Therefore, a lithium-sulfur-cell was built into
the in-situ sample cell. With this setting a diffusion coeffcient as well as a NMR spectrum
before and after 90 minutes of charging were measured.

File: LATP vs Li Batterietest Probe1_02_GCPL_C01.mpt
EC-Lab ASCII FILE
Nb header lines : 82

Galvanostatic Cycling with Potential Limitation

Run on channel : 1 (SN 6985)
Grouped channel(s) : 1
User :
CE vs. WE compliance from -10 V to 10 V
Electrode connection : standard
Ewe ctrl range : min = 0,00 V, max = 5,00 V
Acquisition started on : 10.28.2014 11:50:52
Saved on :
	File : LATP vs Li Batterietest Probe1_02_GCPL_C01.mpr
	Directory : C:\Hupfer\Batterietest Li vs LATP\
	Host : 192.168.0.2
Device : VMP3 (SN 0324)
Address : 192.168.0.1
EC-Lab for windows v10.33 (software)
Internet server v10.33 (firmware)
Command interpretor v10.32 (firmware)
Electrode material : Lithium - LATP folie
Initial state : unbekannt
Electrolyte : LP30
Comments : Batterietest
Mass of active material : 0,001 mg
 at x = 0,000
Molecular weight of active material (at x = 0) : 0,001 g/mol
Atomic weight of intercalated ion : 0,001 g/mol
Acquisition started at : xo = 0,000
Number of e- transfered per intercalated ion : 1
for DX = 1, DQ = 26,801 mA.h
Battery capacity : 0,000 A.h
Reference electrode : Li+/Li (-3,020 V)
Electrode surface area : 0,001 cm²
Characteristic mass : 0,001 g
Ns                  0                   1                   2
Set I/C             I                   I                   I
Is                  0,000               100,000             -100,000
unit Is             mA                  µA                  µA
vs.                 <None>              <None>              <None>
N                   1                   1                   1
I sign              > 0                 > 0                 > 0
t1 (h:m:s)          0:00:0,0000         60:00:0,0000        60:00:0,0000
I Range             100 µA              100 µA              100 µA
Bandwidth           5                   5                   5
dE1 (mV)            0,00                0,00                0,00
dt1 (s)             0,0000              2,0000              2,0000
EM (V)              0,000               4,500               1,200
tM (h:m:s)          0:00:0,0000         0:00:0,0000         0:00:0,0000
Im                  0,000               0,000               0,000
unit Im             mA                  mA                  mA
E range min (V)     0,000               0,000               0,000
E range max (V)     5,000               5,000               5,000
dq                  0,000               1,000               1,000
unit dq             mA.h                mA.h                mA.h
dtq (s)             0,0000              120,0000            120,0000
dQM                 0,000               0,000               0,000
unit dQM            mA.h                mA.h                mA.h
dxM                 0,000               0,000               0,000
tR (h:m:s)          0:00:0,0000         0:00:0,0000         0:00:0,0000
dER/dt (mV/h)       0,0                 0,1                 0,1
dER (mV)            0,00                5,00                5,00
dtR (s)             1,0000              120,0000            120,0000
EL (V)              pass                3,500               3,500
goto Ns'            0                   0                   0
nc cycles           0                   0                   0

Number of loops : 11
Loop 0 from point number 0 to 1297
Loop 1 from point number 1298 to 3017
Loop 2 from point number 3018 to 4693
Loop 3 from point number 4694 to 6333
Loop 4 from point number 6334 to 7945
Loop 5 from point number 7946 to 9554
Loop 6 from point number 9555 to 11158
Loop 7 from point number 11159 to 12751
Loop 8 from point number 12752 to 14335
Loop 9 from point number 14336 to 15911
Loop 10 from point number 15912 to 17481

mode	ox/red	error	control changes	Ns changes	counter inc.	Ns	time/s	control/V/mA	Ewe/V	dq/mA.h	<I>/mA	P/W	(Q-Qo)/mA.h	Capacity/mA.h	x
1	1	0	1	1	0	1	1800,0010	0,100000001	2,48391867	0	0	0	0	0	0
1	1	0	1	0	0	1	2412,0009	0,100000001	3,91527295	5,5562678776267501E-005	0,10001282432381795	0,000391577516	0,017000848486794627	0,017000848486794627	-0,00063432451492620288
1	0	0	0	0	0	2	3021,6171	-0,100000001	2,35087872	-5,5545427736308838E-005	-0,09998177245110793	0,000235045023	0,010826326105413578	0,011553428451598098	-0,00040394478314324115
1	0	0	0	0	0	2	3633,6171	-0,100000001	2,04509282	-5,554536107472247E-005	-0,099981652460249434	0,000204471755	-0,0061705315842390234	0,02855028614125071	0,00023023082977590893
1	0	0	0	0	0	2	4245,6171	-0,100000001	1,25237346	-5,5545406472351814E-005	-0,099981732860731443	0,000125214472	-0,023167403056723168	0,045547157613734822	0,00086440695695103514
1	1	0	1	0	0	1	4854,0555	0,100000001	2,63919854	5,5563030183729197E-005	0,10001345554159482	0,000263955357	-0,014288245025890768	0,01288920738046289	0,00053311363266573773
1	1	0	1	0	0	1	5466,0555	0,100000001	2,89199591	5,5562758702370854E-005	0,10001296687514389	0,000289237098	0,0027139933201863184	0,029891445726539994	-0,00010126273977897947
1	1	0	1	0	0	1	6078,0555	0,100000001	4,41490459	5,5562775336619878E-005	0,10001299681679248	0,000441547832	0,019716189980577472	0,04689364238693111	-0,00073563755687470746
1	0	0	0	0	0	2	6686,1443	-0,100000001	2,29907417	-5,5545645484079917E-005	-0,099982163081847232	0,000229866404	0,0050549382041214714	0,015774956679851235	-0,00018860654083247101
1	0	0	0	0	0	2	7298,1443	-0,100000001	1,86266005	-5,5545463981313837E-005	-0,099981836376864346	0,000186232166	-0,011941985550804066	0,0327718804347768	0,00044557153707083802
1	1	0	1	0	0	1	7907,0345	0,100000001	2,38029051	5,5562816907134317E-005	0,10001307164371938	0,000238060165	-0,02418592552656239	0,0023322684029556659	0,0009024093997187616
1	1	0	1	0	0	1	8519,0344	0,100000001	2,71141529	5,5562641605734822E-005	0,10001275610119648	0,000271176104	-0,007183706728269792	0,019334487201248259	0,00026803375662816602
1	1	0	1	0	0	1	9131,0344	0,100000001	3,17950797	5,5562809051324928E-005	0,1000130575032623	0,000317992322	0,0098185162544704371	0,03633671018398848	-0,00036634204258979674
1	0	0	0	0	0	2	9740,2184	-0,100000001	2,40018177	-5,5545514944526886E-005	-0,099981928110648934	0,000239974805	0,0134094931787694	0,0066654536425541683	-0,00050032621975521517
1	0	0	0	0	0	2	10352,2184	-0,100000001	2,15677905	-5,5545268971059059E-005	-0,099981485358401498	0,000215637978	-0,0035874097540491674	0,023662356575372726	0,00013385108124728718
1	0	0	0	0	0	2	10964,2184	-0,100000001	1,33337414	-5,554504425285591E-005	-0,099981080865630925	0,000133312191	-0,020584224992769171	0,040659171814092723	0,00076802511026506611
1	1	0	1	0	0	1	11573,0140	0,100000001	2,62294865	5,5562989476654266E-005	0,10001338226885904	0,000262329966	-0,015048145466146678	0,011222389059208563	0,00056146653978869382
1	1	0	1	0	0	1	12185,0140	0,100000001	2,8661797	5,5563041098001933E-005	0,10001347518728597	0,000286656606	0,0019541777631086832	0,028224712288463949	-7,2912999761531366E-005
1	1	0	1	0	0	1	12797,0140	0,100000001	4,44942808	5,556313569222887E-005	0,10001364545689654	0,000445003534	0,018956549195396086	0,045227083720751386	-0,00070729433783169178
1	0	0	0	0	0	2	13405,8836	-0,100000001	2,28507757	-5,554412915599015E-005	-0,099979433691252621	0,000228460762	0,0030951374218390176	0,016385623603771542	-0,00011548373866533654
1	0	0	0	0	0	2	14017,8836	-0,100000001	1,77813268	-5,5543770766506598E-005	-0,099978788590174413	0,000177775553	-0,013901234220976149	0,033381995246586707	0,0005186737391928119
[...]
1	1	0	1	0	0	1	25011,8938	0,100000001	2,82439995	5,556308843857712E-005	0,10001356040032234	0,000282478286	0,00013852217177018794	0,02605764568819039	-5,1684484737864646E-006
1	1	0	1	0	0	1	25623,8938	0,100000001	4,339499	5,5562914881027411E-005	0,10001324799672909	0,000434007379	0,017140776841120237	0,043059900357540486	-0,00063954542996176474
1	0	0	0	0	0	2	26233,5422	-0,100000001	2,29531264	-5,554485852561063E-005	-0,09998074655658537	0,000229487065	0,0025230494145196896	0,015774762749635098	-9,4138365931745958E-005
1	0	0	0	0	0	2	26845,5422	-0,100000001	1,78999066	-5,5544803123507232E-005	-0,099980646832798054	0,00017896443	-0,014473703885200058	0,032771516049354861	0,00054003335205865555
1	1	0	1	0	0	1	27455,1012	0,100000001	2,56469011	5,5563107225216096E-005	0,1000135942162729	0,000256503874	-0,020291802799346006	0,0055549325153559014	0,00075711444506262733
1	1	0	1	0	0	1	28067,1012	0,100000001	2,76176858	5,5563040906770362E-005	0,10001347484306914	0,000276214065	-0,0032895116899173606	0,022557223624784538	0,00012273610394632242
1	1	0	1	0	0	1	28679,1012	0,100000001	3,70047426	5,5563049621052211E-005	0,10001349052877667	0,000370097347	0,013712764091645398	0,039559499406347296	-0,00051164166526669773
1	0	0	0	0	0	2	29288,5464	-0,100000001	2,34072018	-5,5544851418584582E-005	-0,09998073376393833	0,000234026928	0,0055336842918637594	0,012553133309522018	-0,00020646920104709658
1	0	0	0	0	0	2	29900,5464	-0,100000001	1,94875908	-5,5544958326551648E-005	-0,099980926198281395	0,000194838736	-0,011463065400342	0,029549883001727795	0,00042770238234210765
1	1	0	1	0	0	1	30509,2386	0,100000001	2,48168468	5,556331633362505E-005	0,10001397061141358	0,000248203141	-0,023256927578953165	0,0025545362244315632	0,00086774723724243648
1	1	0	1	0	0	1	31121,2386	0,100000001	2,71834683	5,5563022637946739E-005	0,10001344195918621	0,00027187122	-0,0062546119121318746	0,019556851891252845	0,00023336797985679437
1	1	0	1	0	0	1	31733,2386	0,100000001	3,32184148	5,5563192180461357E-005	0,10001374713571621	0,0003322298	0,010747677238868603	0,036559141042253293	-0,00040101028818792243
1	0	0	0	0	0	2	32342,7490	-0,100000001	2,37262774	-5,554486934799287E-005	-0,099980766036873638	0,000237217144	0,0081258211776058138	0,0097758735326549222	-0,00030318531341924198
1	0	0	0	0	0	2	32954,7489	-0,100000001	2,0500958	-5,554470347240567E-005	-0,09998046606410208	0,000204969532	-0,0088708748873266624	0,026772569597587424	0,0003309842690642935
1	1	0	1	1	0	1	33563,5180	0,100000001	1,21208322	0	0	0	-0,025776417319927504	0	0,00096175278696817357
1	1	0	1	0	0	1	34175,5180	0,100000001	2,68619108	5,5563242235945331E-005	0,1000138358384113	0,000268656266	-0,0087754701229143078	0,017000947197013184	0,00032742458903099853
1	1	0	1	0	0	1	34787,5180	0,100000001	3,12724519	5,556307750029696E-005	0,1000135393142448	0,000312766846	0,0082268240785922022	0,034003241398519706	-0,00030695386745488877
1	0	0	0	0	0	2	35395,7454	-0,100000001	2,39462519	-5,554482073212663E-005	-0,099980677131599411	0,000239416244	0,010346936401362686	0,0073874745711137843	-0,00038605810873879027
1	0	0	0	0	0	2	36007,7454	-0,100000001	2,11870384	-5,554454787323872E-005	-0,099980185985602099	0,000211828403	-0,0066497682867235789	0,024384179259200051	0,00024811179548620704
1	0	0	0	0	0	2	36619,7454	-0,100000001	1,22915411	-5,554464084862007E-005	-0,099980353341288205	0,000122891259	-0,023646398292836122	0,041380809265312621	0,00088227891322635379
1	0	0	0	0	0	2	36696,7408	-0,100000001	1,19995797	-2,7644638264758717E-005	-0,099980608375636224	0,00011997253	-0,025784743033762509	0,043519154006239021	0,00096206343054539891

File: LATP vs Li Batterietest Probe1_02_GCPL_C01_loop1.mpt
EC-Lab ASCII FILE
Nb header lines : 3
mode	ox/red	error	control changes	Ns changes	counter inc.	Ns	time/s	control/V/mA	Ewe/V	dq/mA.h	<I>/mA	P/W	(Q-Qo)/mA.h	x	Capacity/mA.h
1	1	0	1	1	0	1	4390,06	0,100000001	1,21301889	0	0	0	0	0	0
1	1	0	1	0	0	1	4450,06	0,100000001	2,03786159	5,5562807066159117E-005	0,10001305392996381	0,000203812757	0,001665509746999416	-6,2142407962219149E-005	0,001665509746999416
1	1	0	1	0	0	1	4510,06	0,100000001	2,51221728	5,556276563016905E-005	0,10001297934518077	0,000251254329	0,0033323923523397478	-0,00012433603911496554	0,0033323923523397478
1	1	0	1	0	0	1	4570,06	0,100000001	2,55447435	5,5562868682046733E-005	0,10001316483856285	0,000255481078	0,0049992791984412794	-0,00018652982849621402	0,0049992791984412794
1	1	0	1	0	0	1	4630,06	0,100000001	2,57631898	5,5562858008676109E-005	0,10001314562649549	0,000257665757	0,006666164124543095	-0,00024872354623969168	0,006666164124543095
1	1	0	1	0	0	1	4690,06	0,100000001	2,59422994	5,5562801807290982E-005	0,10001304446400104	0,000259456836	0,0083330487396825101	-0,00031091725238074406	0,0083330487396825101
1	1	0	1	0	0	1	4750,06	0,100000001	2,61067057	5,5562864378094675E-005	0,10001315709144906	0,000261101406	0,009999935427298601	-0,00037311103584868768	0,009999935427298601
1	1	0	1	0	0	1	4810,06	0,100000001	2,62699676	5,5562958359718317E-005	0,10001332625837366	0,000262734684	0,011666822328159834	-0,00043530482727309427	0,011666822328159834
1	1	0	1	0	0	1	4870,06	0,100000001	2,64368582	5,5562900982383226E-005	0,10001322297916925	0,000264403527	0,013333711078910403	-0,00049749868771935917	0,013333711078910403
1	1	0	1	0	0	1	4930,06	0,100000001	2,66075659	5,5562957801338694E-005	0,10001332525329034	0,000266111107	0,01500060007322128	-0,00055969255725318669	0,01500060007322128
1	1	0	1	0	0	1	4990,06	0,100000001	2,67893505	5,55629902192288E-005	0,10001338360549322	0,000267929368	0,016667489788092294	-0,00062188645367208166	0,016667489788092294
1	1	0	1	0	0	1	5050,06	0,100000001	2,69795346	5,5562980939116742E-005	0,10001336690129133	0,00026983142	0,018334379776857827	-0,00068408036031034931	0,018334379776857827
1	1	0	1	0	0	1	5110,06	0,100000001	2,71842313	5,5562982835289504E-005	0,10001337031440234	0,000271878671	0,02000126776808753	-0,00074627419241786957	0,02000126776808753
1	1	0	1	0	0	1	5170,06	0,100000001	2,74043965	5,5562781291289466E-005	0,10001300753519786	0,000274079619	0,021668154959099206	-0,00080846799466817933	0,021668154959099206
1	1	0	1	0	0	1	5230,06	0,100000001	2,76430821	5,556269712953104E-005	0,10001285604403086	0,000276466366	0,023335040661271715	-0,00087066174136789811	0,023335040661271715
1	1	0	1	0	0	1	5290,06	0,100000001	2,79079294	5,5562820624146202E-005	0,10001307833434085	0,000279115804	0,025001925739353782	-0,00093285546478196314	0,025001925739353782
1	1	0	1	0	0	1	5350,06	0,100000001	2,82065725	5,5562799612681069E-005	0,10001304051370315	0,000282102497	0,026668808464310707	-0,00099504910039776538	0,026668808464310707
1	1	0	1	0	0	1	5410,06	0,100000001	2,8550663	5,5562642848326099E-005	0,1000127583378608	0,000285543065	0,028335689107903645	-0,0010572426583550789	0,028335689107903645
1	1	0	1	0	0	1	5470,06	0,100000001	2,89503193	5,5562819468478362E-005	0,1000130762541387	0,000289541058	0,030002571366423174	-0,0011194362765674749	0,030002571366423174
1	1	0	1	0	0	1	5530,06	0,100000001	2,94213915	5,5562713123030131E-005	0,10001288483232957	0,000294251833	0,031669452333844013	-0,0011816298466072427	0,031669452333844013
1	1	0	1	0	0	1	5590,06	0,100000001	2,99902296	5,5562620304110976E-005	0,10001271775827307	0,000299940439	0,033336332837216186	-0,0012438233993327312	0,033336332837216186
1	1	0	1	0	0	1	5650,06	0,100000001	3,06961679	5,556277179262704E-005	0,1000129904376053	0,000307001552	0,035003214290394592	-0,001306016987496767	0,035003214290394592
1	1	0	1	0	0	1	5710,06	0,100000001	3,15940094	5,5562753191424736E-005	0,10001295695544074	0,000315981044	0,036670096902481837	-0,0013682106189012496	0,036670096902481837
1	1	0	1	0	0	1	5770,06	0,100000001	3,27763677	5,5562625507099757E-005	0,10001272712365301	0,000327805377	0,038336978260041978	-0,0014304042034976392	0,038336978260041978
1	1	0	1	0	0	1	5830,06	0,100000001	3,43646812	5,5562711965292691E-005	0,10001288274840216	0,000343691092	0,040003859726853267	-0,0014925977921703366	0,040003859726853267
1	1	0	1	0	0	1	5890,06	0,100000001	3,64685583	5,5562756842623155E-005	0,10001296352759798	0,00036473287	0,041670742986888525	-0,001554791447750631	0,041670742986888525
1	1	0	1	0	0	1	5950,06	0,100000001	3,91204596	5,5562691561463802E-005	0,10001284602150971	0,000391254842	0,043337624604287264	-0,0016169850420419482	0,043337624604287264
1	1	0	1	0	0	1	6010,06	0,100000001	4,19044971	5,5562742245280077E-005	0,10001293725238013	0,000419099175	0,04500450794395888	-0,0016791787005935821	0,04500450794395888
1	1	0	1	0	0	1	6070,06	0,100000001	4,39403391	5,5562784342716134E-005	0,10001301302776594	0,000439460564	0,046671391430826246	-0,0017413723646372874	0,046671391430826246
1	0	0	0	0	0	2	6126,14	-0,100000001	4,16401672	-5,5545431353151795E-005	-0,099981777646171955	0,000416325784	0,047785160741830458	-0,0017829285951096195	0,00022218654849587216
1	0	0	0	0	0	2	6186,14	-0,100000001	2,65171909	-5,5545770503580576E-005	-0,099982388116951142	0,000265125214	0,046118792184619021	-0,0017207541437837072	0,0018885551057072979
1	0	0	0	0	0	2	6246,14	-0,100000001	2,4557097	-5,5545569779972237E-005	-0,099982026814451776	0,00024552684	0,044452420414593069	-0,0016585795725833658	0,0035549268757332518
1	0	0	0	0	0	2	6306,14	-0,100000001	2,41322351	-5,5545543909486797E-005	-0,099981980247577395	0,00024127886	0,042786053352603059	-0,0015964051770461754	0,0052212939377232557
1	0	0	0	0	0	2	6366,14	-0,100000001	2,39798594	-5,5545568318830598E-005	-0,099982024184396787	0,000239755493	0,04111968759774704	-0,0015342308302799114	0,0068876596925792563
1	0	0	0	0	0	2	6426,14	-0,100000001	2,38355017	-5,5545769597507187E-005	-0,099982386486019034	0,000238313034	0,03945331998547289	-0,0014720564142108797	0,0085540273048534157
1	0	0	0	0	0	2	6486,14	-0,100000001	2,36772037	-5,554558298115929E-005	-0,099982050576588749	0,000236729538	0,037786949917947661	-0,0014098819065331294	0,010220397372378656
1	0	0	0	0	0	2	6546,14	-0,100000001	2,34971404	-5,5545619845390317E-005	-0,099982116932205402	0,000234929379	0,036120583992946061	-0,0013477075534185053	0,011886763297380254
1	0	0	0	0	0	2	6606,14	-0,100000001	2,32932067	-5,554567164099879E-005	-0,099982210164301786	0,000232890627	0,034454215064414278	-0,0012855330882381317	0,013553132225912061
1	0	0	0	0	0	2	6666,14	-0,100000001	2,30697966	-5,5545590180489747E-005	-0,099982063535383731	0,000230656588	0,032787846808424864	-0,0012233586481512179	0,015219500481901485
1	0	0	0	0	0	2	6726,14	-0,100000001	2,28269076	-5,5545475600908205E-005	-0,099981857292134451	0,000228227669	0,031121480407318765	-0,0011611842772724946	0,01688586688300761
1	0	0	0	0	0	2	6786,14	-0,100000001	2,25637794	-5,554567937056224E-005	-0,09998222407751616	0,000225597687	0,029455111068424294	-0,0010990097967809376	0,01855223622190208
1	0	0	0	0	0	2	6846,14	-0,100000001	2,22821307	-5,5545553206569619E-005	-0,099981996982326694	0,000222781193	0,027788743956111411	-0,0010368353993661331	0,020218603334214963
1	0	0	0	0	0	2	6906,14	-0,100000001	2,19729829	-5,5545659775535264E-005	-0,099982188806467174	0,000219690686	0,026122377396094342	-0,00097466102255822797	0,021884969894232029
1	0	0	0	0	0	2	6966,14	-0,100000001	2,16319489	-5,5545408843706054E-005	-0,099981737129169126	0,000216279979	0,024456012988078954	-0,00091248672604439898	0,023551334302247418
1	0	0	0	0	0	2	7026,14	-0,100000001	2,12506247	-5,5545443919797734E-005	-0,099981800266134912	0,000212467567	0,022789648150964765	-0,00085031241352031667	0,02521769913936161
1	0	0	0	0	0	2	7086,14	-0,100000001	2,08139229	-5,554549541241593E-005	-0,099981892952848794	0,000208101541	0,021123283452426829	-0,0007881381061667008	0,026884063837899546
1	0	0	0	0	0	2	7146,14	-0,100000001	2,03161192	-5,5545331309239066E-005	-0,099981597567126861	0,000203123811	0,01945692249724313	-0,00072596393848266458	0,028550424793083242
1	0	0	0	0	0	2	7206,14	-0,100000001	1,97327685	-5,5545424145128992E-005	-0,099981764671730739	0,000197291709	0,017790560839536317	-0,00066378974458654618	0,030216786450790054
1	0	0	0	0	0	2	7266,14	-0,100000001	1,90426791	-5,5545575660549933E-005	-0,099982037399491738	0,000190392588	0,01612419625708753	-0,00060161544156437248	0,031883151033238835
1	0	0	0	0	0	2	7326,14	-0,100000001	1,82347739	-5,5545513827353715E-005	-0,099981926099737203	0,000182314776	0,01445782954519369	-0,00053944105908974099	0,033549517745132698
1	0	0	0	0	0	2	7386,14	-0,100000001	1,73173201	-5,554540867937936E-005	-0,099981736833381069	0,000173141569	0,012791465033469128	-0,00047726675870638317	0,035215882256857261
1	0	0	0	0	0	2	7446,14	-0,100000001	1,62466693	-5,5545475001964307E-005	-0,099981856214035418	0,000162437209	0,011125102105263234	-0,00041509251740623603	0,036882245185063162
1	0	0	0	0	0	2	7506,14	-0,100000001	1,51277077	-5,5545481071703962E-005	-0,099981867139566938	0,000151249653	0,0094587393080401997	-0,00035291828099323546	0,038548607982286208
1	0	0	0	0	0	2	7566,14	-0,100000001	1,40110373	-5,554536524083879E-005	-0,099981658644007117	0,000140084681	0,0077923757765781837	-0,0002907440171847913	0,040214971513748218
1	0	0	0	0	0	2	7626,14	-0,100000001	1,30587745	-5,5545276906341312E-005	-0,099981499641909722	0,000130563581	0,0061260177118873715	-0,00022856995734893094	0,041881329578439014
1	0	0	0	0	0	2	7686,14	-0,100000001	1,2533474	-5,5545399979998669E-005	-0,099981721174495642	0,000125311824	0,0044596609912229363	-0,0001663959476605017	0,04354768629910345
1	0	0	0	0	0	2	7746,14	-0,100000001	1,22552609	-5,5545350247787104E-005	-0,099981631656513728	0,000122530095	0,0027933011305994733	-0,00010422182081597947	0,045214046159726918
1	0	0	0	0	0	2	7806,14	-0,100000001	1,20513272	-5,554539846918649E-005	-0,09998171845503369	0,000120491241	0,0011269395337742515	-4,2047629191435245E-005	0,046880407756552134
1	0	0	0	0	0	2	7822,98	-0,100000001	1,2000916	-2,3317935695664749E-005	-0,09998162163020951	0,000119987104	0,00065925847683560013	-2,4597820153185462E-005	0,047348088813490784