Folder: thesis/Experimentelles/Rohdaten/Batteriemessungen/AlteZelle/Batterietest Li vs LATP/ECLab-Export (part 5)

File: LATP_LP30_Li_Aufladen_C01.mpt
EC-Lab ASCII FILE
Nb header lines : 74

Galvanostatic Cycling with Potential Limitation

Run on channel : 1 (SN 6985)
Grouped channel(s) : 1
User :
CE vs. WE compliance from -10 V to 10 V
Electrode connection : standard
Ewe ctrl range : min = 0,00 V, max = 5,00 V
Acquisition started on : 07.06.2015 16:55:48
Saved on :
	File : LATP_LP30_Li_Aufladen_C01.mpr
	Directory : C:\Hupfer\Batterietest Li vs LATP\
	Host : 192.168.0.2
Device : VMP3 (SN 0324)
Address : 192.168.0.1
EC-Lab for windows v10.33 (software)
Internet server v10.33 (firmware)
Command interpretor v10.32 (firmware)
Electrode material :
Initial state :
Electrolyte :
Comments :
Mass of active material : 0,001 mg
 at x = 0,000
Molecular weight of active material (at x = 0) : 0,001 g/mol
Atomic weight of intercalated ion : 0,001 g/mol
Acquisition started at : xo = 0,000
Number of e- transfered per intercalated ion : 1
for DX = 1, DQ = 26,801 mA.h
Battery capacity : 0,000 A.h
Electrode surface area : 0,001 cm²
Characteristic mass : 0,001 g
Ns                  0                   1
Set I/C             I                   I
Is                  0,000               500,000
unit Is             mA                  nA
vs.                 <None>              <None>
N                   1                   1
I sign              > 0                 > 0
t1 (h:m:s)          0:00:0,0000         10:00:0,0000
I Range             1 mA                1 mA
Bandwidth           5                   5
dE1 (mV)            0,00                10,00
dt1 (s)             0,0000              10,0000
EM (V)              0,000               3,800
tM (h:m:s)          0:00:0,0000         24:00:0,0000
Im                  0,000               0,000
unit Im             mA                  mA
E range min (V)     0,000               0,000
E range max (V)     5,000               5,000
dq                  0,000               1,000
unit dq             mA.h                mA.h
dtq (s)             0,0000              120,0000
dQM                 0,000               0,000
unit dQM            mA.h                mA.h
dxM                 0,000               0,000
tR (h:m:s)          0:00:10,0000        0:15:0,0000
dER/dt (mV/h)       0,0                 0,1
dER (mV)            0,00                5,00
dtR (s)             1,0000              120,0000
EL (V)              pass                3,700
goto Ns'            0                   0
nc cycles           0                   0

Modify on : 07.07.2015 15:30
Ns                  0                   1
Is                                      -500,000
EM (V)                                  1,000
EL (V)                                  1,100

mode	ox/red	error	control changes	Ns changes	counter inc.	Ns	time/s	control/V/mA	Ewe/V	dq/mA.h	<I>/mA	P/W	(Q-Qo)/mA.h	x	Capacity/mA.h
3	1	0	0	0	0	0	0,0000	0	3,25884032	0	0	0	0	0	0
1	1	0	0	0	0	1	80,2260	0,000500000024	3,19015574	1,1221165358761533E-006	0,00040396196312035264	1,28870158E-006	7,8917347442143693E-006	-2,9445123385685018E-007	7,8917347442143693E-006
1	1	0	0	0	0	1	270,2260	0,000500000024	3,12553859	1,1245978192730237E-006	0,00040485522516579181	1,26539067E-006	2,9227260600503034E-005	-1,0905083894745834E-006	2,9227260600503034E-005
1	1	0	0	0	0	1	460,2260	0,000500000024	3,15316892	1,1224783235407408E-006	0,00040409220668289453	1,27417104E-006	5,0574696121701792E-005	-1,8870099107028262E-006	5,0574696121701792E-005
1	1	0	0	0	0	1	650,2260	0,000500000024	3,2356782	1,1270844024790373E-006	0,00040575039514257062	1,31287766E-006	7,191690268240119E-005	-2,6833163323844266E-006	7,191690268240119E-005
1	1	0	0	0	0	1	840,2260	0,000500000024	3,3014791	1,1240696235359389E-006	0,00040466507469563763	1,33599326E-006	9,3274697552440768E-005	-3,4802043748462131E-006	9,3274697552440768E-005
1	1	0	0	0	0	1	1030,2260	0,000500000024	3,3648169	1,1281556327545938E-006	0,00040613603805151309	1,36657343E-006	0,00011464321921307338	-4,2774926482873498E-006	0,00011464321921307338
1	1	0	0	0	0	1	1220,2260	0,000500000024	3,42332387	1,1195607046861875E-006	0,00040304186386872141	1,3797428E-006	0,00013593116929680646	-5,071774687864727E-006	0,00013593116929680646
1	1	0	0	0	0	1	1410,2260	0,000500000024	3,47879457	1,1123903154067296E-006	0,00040046052366290637	1,39311987E-006	0,0001571263929431985	-5,8625969793928896E-006	0,0001571263929431985
1	1	0	0	0	0	1	1600,2260	0,000500000024	3,54530191	1,1190625402491099E-006	0,00040286252466684301	1,42826923E-006	0,00017833327328828781	-6,6538541980220454E-006	0,00017833327328828781
1	1	0	0	0	0	1	1790,2260	0,000500000024	3,59788942	1,1146069706818606E-006	0,00040125851958211264	1,4436838E-006	0,00019953364110253302	-7,444868425369216E-006	0,00019953364110253302
1	1	0	0	0	0	1	1980,2259	0,000500000024	3,62781119	1,1101528147668835E-006	0,00039965502341221312	1,44987291E-006	0,00022078336006141523	-8,2377240102761139E-006	0,00022078336006141523
1	1	0	0	0	0	1	2170,2259	0,000500000024	3,65704536	1,1141635694786803E-006	0,00040109889514493523	1,46683681E-006	0,00024199889574897843	-9,0293041713702029E-006	0,00024199889574897843
1	1	0	0	0	0	1	2360,2259	0,000500000024	3,68448472	1,1167579110737682E-006	0,00040203285814276083	1,4812839E-006	0,000263293612039188	-9,8238386672084787E-006	0,000263293612039188
1	1	0	0	0	0	1	2550,2259	0,000500000024	3,70802879	1,1074245691706893E-006	0,00039867285497277152	1,47829041E-006	0,00028440237022300429	-1,061143481607389E-005	0,00028440237022300429
1	1	0	0	0	0	1	2740,2259	0,000500000024	3,71900845	1,1156746681954245E-006	0,00040164289069670566	1,49371328E-006	0,0003055157828884039	-1,139920462990519E-005	0,0003055157828884039
1	1	0	0	0	0	1	2930,2259	0,000500000024	3,72049785	1,0989600119404106E-006	0,00039562561429289146	1,47192429E-006	0,00032639462471618278	-1,2178222290401016E-005	0,00032639462471618278
1	1	0	0	0	0	1	3120,2259	0,000500000024	3,7111032	1,1003629984382618E-006	0,00039613068944487712	1,47008188E-006	0,00034730201172361242	-1,2958305009929014E-005	0,00034730201172361242
1	1	0	0	0	0	1	3310,2259	0,000500000024	3,73730135	1,0970058641638995E-006	0,00039492212107557574	1,47594301E-006	0,00036814874278348557	-1,373612457450089E-005	0,00036814874278348557
1	1	0	0	0	0	1	3500,2259	0,000500000024	3,75393295	1,1025001594421661E-006	0,00039690006742571885	1,48993627E-006	0,00038904415865038272	-1,4515760634680253E-005	0,00038904415865038272
1	1	0	0	0	0	1	3690,2259	0,000500000024	3,78463769	1,1018331136074267E-006	0,0003966599309191463	1,50121411E-006	0,00040992309551606342	-1,5294781841167974E-005	0,00040992309551606342
2	1	0	1	0	0	1	4640,1725	3,79996467	3,79960799	9,2860001085642189E-006	0,00027858000662974858	1,05849483E-006	0,0004965646607850071	-1,8527495132175709E-005	0,0004965646607850071
2	1	0	1	0	0	1	6920,1725	3,79996467	3,79941702	4,5401226935584877E-006	0,00013620368245579896	5,17494584E-007	0,00061482645945743078	-2,2940001845323245E-005	0,00061482645945743078
2	1	0	1	0	0	1	9200,1724	3,79996467	3,7995317	3,7162319641150688E-006	0,00011148696027324626	4,23598237E-007	0,00069137780524799104	-2,5796235481148115E-005	0,00069137780524799104
2	1	0	1	0	0	1	11480,1724	3,79996467	3,79945517	3,421985211628352E-006	0,00010265955759176968	3,90050388E-007	0,000755709163675216	-2,8196524958499194E-005	0,000755709163675216
[...]
2	1	0	1	0	0	1	38840,1722	3,79996467	3,79945517	1,3088901395031421E-006	3,926670411195433E-005	1,49192076E-007	0,0012274925304123907	-4,5799396690946054E-005	0,0012274925304123907
2	1	0	1	0	0	1	41120,1722	3,79996467	3,79958892	1,2642309237640397E-006	3,7926927642276787E-005	1,44106735E-007	0,001252660153110785	-4,6738434532051757E-005	0,001252660153110785
2	1	0	1	0	0	1	43400,1722	3,79996467	3,79947424	1,1019162000681034E-006	3,3057485940468736E-005	1,25601062E-007	0,0012749620390799595	-4,7570547882766246E-005	0,0012749620390799595
2	1	0	1	0	0	1	45680,1722	3,79996467	3,79941702	1,1148066484785582E-006	3,3444199392062074E-005	1,27068461E-007	0,0012967581131588877	-4,8383788711784339E-005	0,0012967581131588877
2	1	0	1	0	0	1	47960,1722	3,79996467	3,79949331	1,2959060634879178E-006	3,8877181832223142E-005	1,47713592E-007	0,0013202177674278925	-4,9259099954401536E-005	0,0013202177674278925
2	1	0	1	0	0	1	50240,1722	3,79996467	3,79932165	1,3422021566791245E-006	4,0266064625372352E-005	1,52983731E-007	0,0013440553643145378	-5,0148512744232154E-005	0,0013440553643145378
2	1	0	1	0	0	1	52520,1722	3,79996467	3,79945517	1,2855905337044331E-006	3,8567715939295021E-005	1,46536308E-007	0,0013672453794834205	-5,1013763389490163E-005	0,0013672453794834205
2	1	0	1	0	0	1	54800,1722	3,79996467	3,79955077	1,1471262211088944E-006	3,4413786569166163E-005	1,30756931E-007	0,0013899794402220906	-5,1862001761919699E-005	0,0013899794402220906
2	1	0	1	0	0	1	57080,1722	3,79996467	3,79951262	1,1154228189988469E-006	3,3462684507636294E-005	1,27141888E-007	0,0014116149329268096	-5,2669251083962086E-005	0,0014116149329268096
2	1	0	1	0	0	1	59360,1722	3,79996467	3,79937887	1,1193353535234742E-006	3,3580060543156486E-005	1,27583377E-007	0,0014341072679118789	-5,3508470343521037E-005	0,0014341072679118789
2	1	0	1	0	0	1	61640,1722	3,79996467	3,79937887	1,0301794480435798E-006	3,0905383383741632E-005	1,17421258E-007	0,0014548450444535168	-5,428222466852665E-005	0,0014548450444535168
2	1	0	1	0	0	1	63920,1722	3,79996467	3,7995317	1,0832958018691619E-006	3,2498873995540986E-005	1,23480504E-007	0,0014761734000572349	-5,5078014292380467E-005	0,0014761734000572349
2	1	0	1	0	0	1	66200,1733	3,79996467	3,7995317	1,1402287030309709E-006	3,4206812178830624E-005	1,29969862E-007	0,0014983631241408765	-5,5905942732342477E-005	0,0014983631241408765
2	1	0	1	0	0	1	68480,1765	3,79996467	3,79949331	1,1206501255589704E-006	3,3619455686863277E-005	1,27736897E-007	0,0015206600306430579	-5,673787029244848E-005	0,0015206600306430579
2	1	0	1	0	0	1	70760,1798	3,79996467	3,79958892	1,0341104664946795E-006	3,1023269620727098E-005	1,17875672E-007	0,0015413970786675539	-5,7511597435500026E-005	0,0015413970786675539
2	1	0	1	0	0	1	73040,1830	3,79996467	3,79949331	9,1839073136527027E-007	2,7551682532771254E-005	1,04682435E-007	0,0015604675755340752	-5,8223143314145677E-005	0,0015604675755340752
2	1	0	1	0	0	1	75320,1863	3,79996467	3,79949331	1,0318076036179618E-006	3,0954183836782099E-005	1,17610213E-007	0,0015795357564597341	-5,893460278192393E-005	0,0015795357564597341
2	1	0	1	0	0	1	77600,1896	3,79996467	3,79960799	9,9000417918033344E-007	2,9700082903996864E-005	1,12848674E-007	0,0015973273702826048	-5,9598431814734438E-005	0,0015973273702826048
2	1	0	1	0	0	1	79880,1928	3,79996467	3,79955077	9,8575741509440218E-007	2,9572680166733242E-005	1,12362898E-007	0,0016160138455301315	-6,0295649330452838E-005	0,0016160138455301315
2	1	0	0	0	0	1	81374,7127	3,79996467	3,79943609	1,1927037596151168E-006	5,4295537620104909E-005	2,06292427E-007	0,0016273387057198554	-6,0718195090567898E-005	0,0016273387057198554

File: LATP_LP30_Li_Entladen bis 0k5V_01_OCV_C01.mpt
EC-Lab ASCII FILE
Nb header lines : 43

Open Circuit Voltage

Run on channel : 1 (SN 6985)
Grouped channel(s) : 1
User :
CE vs. WE compliance from -10 V to 10 V
Electrode connection : standard
Ewe ctrl range : min = 0,00 V, max = 5,00 V
Acquisition started on : 07.09.2015 17:19:07
Saved on :
	File : LATP_LP30_Li_Entladen bis 0k5V_01_OCV_C01.mpr
	Directory : C:\Hupfer\Batterietest Li vs LATP\
	Host : 192.168.0.2
Device : VMP3 (SN 0324)
Address : 192.168.0.1
EC-Lab for windows v10.33 (software)
Internet server v10.33 (firmware)
Command interpretor v10.32 (firmware)
Electrode material :
Initial state :
Electrolyte :
Comments :
Mass of active material : 0,001 mg
 at x = 0,000
Molecular weight of active material (at x = 0) : 0,001 g/mol
Atomic weight of intercalated ion : 0,001 g/mol
Acquisition started at : xo = 0,000
Number of e- transfered per intercalated ion : 1
for DX = 1, DQ = 26,801 mA.h
Battery capacity : 0,000 A.h
Electrode surface area : 0,001 cm²
Characteristic mass : 0,001 g
tR (h:m:s)          2:00:30,0000
dER/dt (mV/h)       1,0
dER (mV)            1,00
dtR (s)             10,0000
E range min (V)     0,000
E range max (V)     5,000

mode	error	time/s	Ewe/V
3	0	0,0000	1,1038996
3	0	22,0980	1,10693562
3	0	46,7696	1,10997176
3	0	72,7462	1,11302698
3	0	100,2302	1,116063
3	0	128,3604	1,11913729
3	0	157,7546	1,12194431
3	0	183,4286	1,12475121
3	0	213,1012	1,12732899
3	0	241,1220	1,13013601
3	0	269,9554	1,13244653
3	0	298,6376	1,13490975
3	0	327,7194	1,13744938
3	0	357,7194	1,13979805
3	0	387,7164	1,14216578
3	0	417,7164	1,14443803
3	0	447,1518	1,14655757
3	0	477,1518	1,14882994
3	0	506,9756	1,15073943
3	0	536,9756	1,15291619
3	0	566,9756	1,15480661
3	0	596,9756	1,15679252
3	0	626,9756	1,15866375
3	0	656,9756	1,16059232
3	0	686,9756	1,1623491
3	0	716,9756	1,16410577
3	0	746,9756	1,16586256
3	0	776,9756	1,16756201
3	0	806,9756	1,16920412
3	0	836,9756	1,17076993
3	0	866,9756	1,17239296
3	0	896,9756	1,17399704
3	0	926,9756	1,17554367
3	0	956,9756	1,17707121
3	0	986,9756	1,17863703
3	0	1016,9756	1,18012643
3	0	1046,9756	1,18155861
3	0	1076,9756	1,18293345
3	0	1106,9756	1,18444192
3	0	1136,9756	1,18579769
3	0	1166,9756	1,18711519
3	0	1196,9756	1,18852818
3	0	1226,9756	1,18975031
3	0	1256,9756	1,19112515
3	0	1286,9756	1,19236624
3	0	1316,9756	1,19370294
3	0	1346,9756	1,19502044
3	0	1376,9756	1,19624257
3	0	1406,9756	1,19748378
3	0	1436,9756	1,19861031
3	0	1466,9756	1,20006156
3	0	1496,9756	1,20107353
3	0	1526,9756	1,20239115
3	0	1556,9756	1,20351768
3	0	1586,9756	1,20456791
3	0	1616,9756	1,20571363
3	0	1646,9756	1,20693564
3	0	1676,9756	1,20804322
3	0	1706,9756	1,20905519
3	0	1736,9756	1,21031547
3	0	1766,9756	1,21134663
3	0	1796,9756	1,21241593
3	0	1826,9756	1,21352339
3	0	1856,9756	1,21465003
3	0	1886,9756	1,21573842
3	0	1916,9756	1,21690321
3	0	1946,9756	1,21768618
3	0	1976,9756	1,21885097
3	0	2006,9755	1,21990108
3	0	2036,9755	1,2208941
3	0	2066,9755	1,22188699
3	0	2096,9755	1,22303271
3	0	2126,9755	1,2238729
3	0	2156,9755	1,22494221
3	0	2186,9755	1,22587788
3	0	2216,9755	1,22675622
3	0	2246,9755	1,22788286
3	0	2276,9755	1,22889483
3	0	2306,9755	1,22977316
3	0	2336,9755	1,2307471
3	0	2366,9755	1,23179722
3	0	2396,9755	1,23269475
3	0	2426,9755	1,23347759
3	0	2456,9755	1,23452783
3	0	2486,9755	1,23538709
3	0	2516,9755	1,2363801
3	0	2546,9755	1,23725843
3	0	2576,9755	1,23815584
3	0	2606,9755	1,23907244
3	0	2636,9755	1,23989356
3	0	2666,9755	1,24073374
3	0	2696,9755	1,24170756
3	0	2726,9755	1,24271953
3	0	2756,9755	1,24342608
3	0	2786,9755	1,24428535
3	0	2816,9755	1,24510646
3	0	2846,9755	1,24606121
3	0	2876,9755	1,24676764
3	0	2906,9755	1,24776065
3	0	2936,9755	1,24852443
3	0	2966,9755	1,24949825
3	0	2996,9755	1,25033844
3	0	3026,9755	1,25110221
3	0	3056,9755	1,25188506
3	0	3086,9755	1,25266802
3	0	3116,9755	1,2535845
3	0	3146,9755	1,25436747
3	0	3176,9755	1,25528395
3	0	3206,9755	1,25602865
3	0	3236,9755	1,25673521
3	0	3266,9755	1,25761354
3	0	3296,9755	1,25841558
3	0	3326,9755	1,25914121
3	0	3356,9755	1,26007688
3	0	3386,9755	1,26074517
3	0	3416,9755	1,2616235
3	0	3446,9755	1,26231098
3	0	3476,9755	1,26303649
3	0	3506,9755	1,26391494
3	0	3536,9755	1,26467872
3	0	3566,9755	1,26532793
3	0	3596,9755	1,26624453
3	0	3626,9755	1,26695096
3	0	3656,9755	1,26763844
3	0	3686,9755	1,26838315
3	0	3716,9755	1,26939511
3	0	3746,9755	1,26987255
3	0	3776,9755	1,27069354
3	0	3806,9755	1,27132368
3	0	3836,9755	1,27214479
3	0	3866,9755	1,27290857
3	0	3896,9755	1,27369153
3	0	3926,9755	1,2743789
3	0	3956,9755	1,27514267
3	0	3986,9755	1,27583015
3	0	4016,9755	1,27646029
3	0	4046,9755	1,27722406
3	0	4076,9755	1,27787328
3	0	4106,9755	1,27857983
3	0	4136,9755	1,27936268
3	0	4166,9755	1,27999282
3	0	4196,9755	1,28075659
3	0	4226,9755	1,28146315
3	0	4256,9755	1,28216958
3	0	4286,9755	1,28281891
3	0	4316,9755	1,28342986
3	0	4346,9755	1,28407907
3	0	4376,9755	1,28486204
3	0	4406,9755	1,28549218
3	0	4436,9755	1,28610313
3	0	4466,9755	1,2868861
3	0	4496,9755	1,28757346
3	0	4526,9755	1,28814638
3	0	4556,9755	1,28877652
3	0	4586,9755	1,28957844
3	0	4616,9755	1,29011309
3	0	4646,9755	1,29072416
3	0	4676,9755	1,29152608
3	0	4706,9755	1,29223263
3	0	4736,9755	1,29276729
3	0	4766,9755	1,29355025
3	0	4796,9755	1,29414213
3	0	4826,9755	1,29486775
3	0	4856,9755	1,29547882
3	0	4886,9755	1,29612803
3	0	4916,9755	1,29671991
3	0	4946,9755	1,29750288
3	0	4976,9755	1,29790378
3	0	5006,9755	1,29855311
3	0	5036,9755	1,29910684
3	0	5066,9755	1,29987061
3	0	5096,9755	1,30051982
3	0	5126,9755	1,30109274
3	0	5156,9755	1,30170369
3	0	5186,9755	1,30241024
3	0	5216,9755	1,30302131
3	0	5246,9755	1,30365145
3	0	5276,9755	1,30420518
3	0	5306,9755	1,30487347
3	0	5336,9755	1,30550361
3	0	5366,9755	1,30605733
3	0	5396,9755	1,30674481
3	0	5426,9755	1,30739403
3	0	5456,9755	1,30794775
3	0	5486,9755	1,30852056
3	0	5516,9755	1,30905521
3	0	5546,9755	1,30955172
3	0	5576,9755	1,31020093
3	0	5606,9755	1,3109839
3	0	5636,9755	1,31142306
3	0	5666,9755	1,3121295
3	0	5696,9755	1,31268334
3	0	5726,9755	1,3131988
3	0	5756,9755	1,31390536
3	0	5786,9755	1,31444001
3	0	5816,9755	1,31499374
3	0	5846,9755	1,31564295
3	0	5876,9755	1,31613946
3	0	5906,9755	1,31671226
3	0	5936,9755	1,31738067
3	0	5966,9755	1,31785798
3	0	5996,9755	1,31844997
3	0	6026,9755	1,3190037
3	0	6056,9755	1,3195765
3	0	6086,9755	1,32014942
3	0	6116,9755	1,32062674
3	0	6146,9755	1,32129514
3	0	6176,9755	1,32194436
3	0	6206,9755	1,3224026
3	0	6236,9755	1,3229754
3	0	6266,9755	1,32358646
3	0	6296,9755	1,3240639
3	0	6326,9755	1,32454121
3	0	6356,9755	1,32511413
3	0	6386,9755	1,32566786
3	0	6416,9755	1,32633615
3	0	6446,9755	1,32688987
3	0	6476,9755	1,32725275
3	0	6506,9755	1,32786369
3	0	6536,9755	1,32843661
3	0	6566,9755	1,32895219
3	0	6596,9755	1,32950592
3	0	6626,9755	1,33011699
3	0	6656,9755	1,33053708
3	0	6686,9755	1,33105254
3	0	6706,0973	1,331339
3	0	6736,0973	1,3320837
3	0	6766,0973	1,3325038
3	0	6796,0973	1,3330766
3	0	6826,0973	1,33364952
3	0	6856,0973	1,33427966
3	0	6886,0973	1,33458519
3	0	6916,0973	1,33517706
3	0	6946,0973	1,33559716
3	0	6976,0973	1,33626544
3	0	7006,0973	1,33674288
3	0	7036,0973	1,33733487
3	0	7066,0973	1,33777404
3	0	7096,0973	1,33834684
3	0	7126,0973	1,33880508
3	0	7156,0973	1,33930159
3	0	7186,0973	1,33968353
3	0	7216,0973	1,34038997
3	0	7229,9999	1,34058094