Folder: thesis/Experimentelles/Rohdaten/Batteriemessungen/AlteZelle/Batterietest Li vs LATP/ECLab-Export (part 2)

File: LATP vs Li Batterietest Probe1_02_GCPL_C01_loop3.mpt
EC-Lab ASCII FILE
Nb header lines : 3
mode	ox/red	error	control changes	Ns changes	counter inc.	Ns	time/s	control/V/mA	Ewe/V	dq/mA.h	<I>/mA	P/W	(Q-Qo)/mA.h	x	Capacity/mA.h
1	1	0	1	1	0	1	11169,01	0,100000001	1,21288526	0	0	0	0	0	0
1	1	0	1	0	0	1	11227,01	0,100000001	2,08517885	5,5563165792160563E-005	0,10001369963677424	0,000208546451	0,001609956575530911	-6,0069644442695795E-005	0,001609956575530911
1	1	0	1	0	0	1	11285,01	0,100000001	2,51548266	5,5563212304065626E-005	0,10001378335820435	0,00025158294	0,0032212876518685562	-0,00012019057335852682	0,0032212876518685562
1	1	0	1	0	0	1	11343,01	0,100000001	2,55441713	5,5563280770348179E-005	0,10001390659751445	0,000255477236	0,0048326214472310189	-0,00018031160372482957	0,0048326214472310189
1	1	0	1	0	0	1	11401,01	0,100000001	2,57517314	5,5563190196537306E-005	0,1000137435646529	0,000257552718	0,0064439553463937293	-0,0002404326379640591	0,0064439553463937293
1	1	0	1	0	0	1	11459,01	0,100000001	2,59209132	5,5563332224885626E-005	0,10001399921568298	0,000259245426	0,0080552889431622093	-0,00030055366092055334	0,0080552889431622093
1	1	0	1	0	0	1	11517,01	0,100000001	2,60784459	5,5563166175037619E-005	0,10001370032595294	0,000260820176	0,0096666221729059827	-0,00036067467018286227	0,0096666221729059827
1	1	0	1	0	0	1	11575,01	0,100000001	2,62357879	5,5562942384431763E-005	0,1000132975028575	0,000262392772	0,011277952001592994	-0,00042079555254717069	0,011277952001592994
1	1	0	1	0	0	1	11633,01	0,100000001	2,63958025	5,5563085154940685E-005	0,10001355448977667	0,000263993803	0,012889280293842386	-0,00048091637758492576	0,012889280293842386
1	1	0	1	0	0	1	11691,01	0,100000001	2,65605927	5,5563010670658618E-005	0,10001342041806734	0,000265641575	0,01450060958176336	-0,00054103723977252634	0,01450060958176336
1	1	0	1	0	0	1	11749,01	0,100000001	2,673913	5,5563137707610925E-005	0,10001364908458427	0,000267427793	0,016111937173776976	-0,00060115803868354304	0,016111937173776976
1	1	0	1	0	0	1	11807,01	0,100000001	2,69251156	5,5563261003543936E-005	0,10001387101726635	0,000269288517	0,017723269364245475	-0,00066127900916909414	0,017723269364245475
1	1	0	1	0	0	1	11865,01	0,100000001	2,71256113	5,5563158795651462E-005	0,1000136870430577	0,000271293247	0,019334602439328426	-0,0007214000126608	0,019334602439328426
1	1	0	1	0	0	1	11923,01	0,100000001	2,73406196	5,5563213727540442E-005	0,10001378592045904	0,000273443875	0,020945934410511853	-0,00078152097496453018	0,020945934410511853
1	1	0	1	0	0	1	11981,01	0,100000001	2,75766325	5,5563173498958349E-005	0,1000137135090104	0,000275804137	0,022557266025487162	-0,00084164192397765658	0,022557266025487162
1	1	0	1	0	0	1	12039,01	0,100000001	2,78349876	5,5563308345774803E-005	0,10001395623328298	0,000278388732	0,024168597678275408	-0,00090176287440163469	0,024168597678275408
1	1	0	1	0	0	1	12097,01	0,100000001	2,81273293	5,556314987565081E-005	0,1000136709870563	0,000281311746	0,025779931293901722	-0,00096188389806174003	0,025779931293901722
1	1	0	1	0	0	1	12155,01	0,100000001	2,84656906	5,5563078588909574E-005	0,10001354267092054	0,000284695445	0,027391265035187875	-0,001022004926410383	0,027391265035187875
1	1	0	1	0	0	1	12213,01	0,100000001	2,88590455	5,556321388234695E-005	0,10001378619911075	0,000288630254	0,029002597056069152	-0,0010821258905684069	0,029002597056069152
1	1	0	1	0	0	1	12271,01	0,100000001	2,93236256	5,5563170600268576E-005	0,10001370829136875	0,000293276447	0,030613928404566163	-0,0011422468296388698	0,030613928404566163
1	1	0	1	0	0	1	12329,01	0,100000001	2,98867345	5,5563470598724147E-005	0,10001424828859533	0,00029890993	0,032225264033442419	-0,0012023679284160374	0,032225264033442419
1	1	0	1	0	0	1	12387,01	0,100000001	3,058599	5,5563399324400557E-005	0,1000141199948113	0,000305903086	0,033836599612857171	-0,0012624890253477296	0,033836599612857171
1	1	0	1	0	0	1	12445,01	0,100000001	3,14788675	5,5563337589717568E-005	0,10001400887238058	0,000314832781	0,035447938206124902	-0,0013226102347303288	0,035447938206124902
1	1	0	1	0	0	1	12503,01	0,100000001	3,26512957	5,5563378001252813E-005	0,1000140816131449	0,000326558948	0,037059277505675802	-0,0013827314704653027	0,037059277505675802
1	1	0	1	0	0	1	12561,01	0,100000001	3,42287254	5,5563312170406182E-005	0,10001396311761952	0,000342335057	0,038670615673437562	-0,0014428526639717021	0,038670615673437562
1	1	0	1	0	0	1	12619,01	0,100000001	3,63228631	5,5563336786296634E-005	0,10001400742622288	0,000363279512	0,040281952830289242	-0,001502973819759687	0,040281952830289242
1	1	0	1	0	0	1	12677,01	0,100000001	3,90205932	5,5563320282018848E-005	0,10001397771852251	0,00039026048	0,041893289268009626	-0,0015630949487159165	0,041893289268009626
1	1	0	1	0	0	1	12735,01	0,100000001	4,20415401	5,5563222287843629E-005	0,10001380132900498	0,000420473429	0,043504623894675603	-0,001623216010099271	0,043504623894675603
1	1	0	1	0	0	1	12793,01	0,100000001	4,43724585	5,5563184973680314E-005	0,10001373416351018	0,000443785539	0,045115957420009984	-0,0016833370303904627	0,045115957420009984
1	0	0	0	0	0	2	12847,88	-0,100000001	3,4318223	-5,5544382528298432E-005	-0,099979889761413056	0,000343113206	0,044862581530335731	-0,0016738832352792096	0,00088871402063013798
1	0	0	0	0	0	2	12905,88	-0,100000001	2,51723361	-5,5544605551494496E-005	-0,099980291203170829	0,000251673744	0,043251791492865997	-0,0016137824932509747	0,0024995040580998691
1	0	0	0	0	0	2	12963,88	-0,100000001	2,42750669	-5,5544627893302176E-005	-0,099980331418425139	0,000242702925	0,041641001505270874	-0,0015536817530836288	0,0041102940456950003
1	0	0	0	0	0	2	13021,88	-0,100000001	2,40755248	-5,5544635558707846E-005	-0,099980345216155494	0,00024070793	0,040030210388979418	-0,001493580970803105	0,0057210851619864467
1	0	0	0	0	0	2	13079,88	-0,100000001	2,39353681	-5,5544690352761082E-005	-0,099980443845452531	0,000239306872	0,038419415497337216	-0,001433480047659169	0,0073318800536286451
1	0	0	0	0	0	2	13137,88	-0,100000001	2,37910104	-5,5544479420615565E-005	-0,09998006416758601	0,000237862681	0,036808625156635066	-0,0013733792943169251	0,0089426703943308019
1	0	0	0	0	0	2	13195,88	-0,100000001	2,3629849	-5,5544485658407206E-005	-0,099980075395611098	0,000236251406	0,035197834165813043	-0,0013132785167178347	0,010553461385152818
1	0	0	0	0	0	2	13253,88	-0,100000001	2,3442719	-5,5544622501979277E-005	-0,099980321714043789	0,000234381063	0,033587041565804275	-0,0012531776790778232	0,012164253985161584
1	0	0	0	0	0	2	13311,88	-0,100000001	2,32334399	-5,554436790115303E-005	-0,099979863432551014	0,00023228761	0,03197625167953705	-0,0011930769426911573	0,013775043871428818
1	0	0	0	0	0	2	13369,88	-0,100000001	2,30043006	-5,5544224109914566E-005	-0,099979604608318643	0,000229996091	0,030365466741793952	-0,00113297639094058	0,015385828809171914
1	0	0	0	0	0	2	13427,88	-0,100000001	2,27553034	-5,5544081031862234E-005	-0,099979347067821312	0,00022750604	0,028754687569197946	-0,0010728760542953922	0,016996607981767917
1	0	0	0	0	0	2	13485,88	-0,100000001	2,24870181	-5,5544043008652E-005	-0,099979278626042074	0,000224823583	0,02714391033694465	-0,0010127757900469994	0,018607385214021216
1	0	0	0	0	0	2	13543,88	-0,100000001	2,21952486	-5,5543682796259718E-005	-0,099978630243728102	0,000221905051	0,025533138637238762	-0,00095267573222538906	0,020218156913727101
1	0	0	0	0	0	2	13601,88	-0,100000001	2,18750262	-5,5543817535870605E-005	-0,09997887277503063	0,000218704052	0,023922368044498333	-0,00089257571570614835	0,021828927506467533
1	0	0	0	0	0	2	13659,88	-0,100000001	2,15204358	-5,5543576719860237E-005	-0,099978439306206733	0,000215157954	0,022311601392386134	-0,00083247584621704525	0,023439694158579731
1	0	0	0	0	0	2	13717,88	-0,100000001	2,11209702	-5,5543533793340128E-005	-0,099978362038469606	0,000211164006	0,020700838552385837	-0,00077237611896296256	0,025050456998580026
1	0	0	0	0	0	2	13775,88	-0,100000001	2,0665555	-5,5543523463937971E-005	-0,099978343445545498	0,000206610799	0,019090075375127146	-0,00071227637912531571	0,026661220175838717
1	0	0	0	0	0	2	13833,88	-0,100000001	2,01400638	-5,5543562459448973E-005	-0,09997841363746615	0,000201357165	0,017479310763519523	-0,00065217658577018176	0,028271984787446339
1	0	0	0	0	0	2	13891,88	-0,100000001	1,95227253	-5,5543429066737498E-005	-0,099978173530582579	0,000195184635	0,015868549247821024	-0,00059207690792757965	0,029882746303144838
1	0	0	0	0	0	2	13949,88	-0,100000001	1,87934899	-5,55435166147848E-005	-0,099978331117069632	0,000187894169	0,014257785596373027	-0,00053197715039729229	0,031493509954592838
1	0	0	0	0	0	2	14007,88	-0,100000001	1,79409599	-5,5543719376126925E-005	-0,099978696087489882	0,000179371375	0,012647019068418534	-0,00047187728554068006	0,033104276482547334
1	0	0	0	0	0	2	14065,88	-0,100000001	1,6951462	-5,5543985548946592E-005	-0,099979175198571085	0,000169479317	0,011036248998021344	-0,00041177728851076787	0,034715046552944512
1	0	0	0	0	0	2	14123,88	-0,100000001	1,58365107	-5,5543959600230061E-005	-0,099979128490880768	0,000158332055	0,0094254731249762189	-0,00035167707497625952	0,036325822425989638
1	0	0	0	0	0	2	14181,88	-0,100000001	1,46785951	-5,5543772329886752E-005	-0,099978791404258726	0,000146754814	0,0078146996233937715	-0,00029157694992421222	0,037936595927572083
1	0	0	0	0	0	2	14239,88	-0,100000001	1,35420668	-5,5543868159254394E-005	-0,09997896389712256	0,000135392183	0,0062039268885501632	-0,00023147685348022179	0,039547368662415693
1	0	0	0	0	0	2	14297,88	-0,100000001	1,27127743	-5,5543845455265709E-005	-0,099978923029942438	0,000127100953	0,0045931536744893498	-0,00017137673915599315	0,041158141876476493
1	0	0	0	0	0	2	14355,88	-0,100000001	1,23219025	-5,5543987776256269E-005	-0,099979179207728563	0,000123193371	0,0029823796392383763	-0,00011127659419205554	0,042768915911727443
1	0	0	0	0	0	2	14413,88	-0,100000001	1,20927632	-5,5543900056845606E-005	-0,099979021312787456	0,000120902259	0,0013716055372542054	-5,1176446738212627E-005	0,04437969001371161
1	0	0	0	0	0	2	14441,95	-0,100000001	1,20005345	-1,9051464854015245E-006	-0,099978533972360883	0,000119979588	0,00059208715443794061	-2,2091567801725306E-005	0,045159208396527872

File: LATP vs Li Batterietest Probe1_02_GCPL_C01_loop4.mpt
EC-Lab ASCII FILE
Nb header lines : 3
mode	ox/red	error	control changes	Ns changes	counter inc.	Ns	time/s	control/V/mA	Ewe/V	dq/mA.h	<I>/mA	P/W	(Q-Qo)/mA.h	x	Capacity/mA.h
1	1	0	1	1	0	1	14442,00	0,100000001	1,21313345	0	0	0	0	0	0
1	1	0	1	0	0	1	14498,00	0,100000001	2,11790752	5,556387953749961E-005	0,10001498437840006	0,000211822495	0,0015544143167415757	-5,7997288089904525E-005	0,0015544143167415757
1	1	0	1	0	0	1	14554,00	0,100000001	2,51859498	5,5563891661663853E-005	0,10001500620189597	0,000251897291	0,0031102027183448602	-0,00011604584513347614	0,0031102027183448602
1	1	0	1	0	0	1	14610,00	0,100000001	2,55607843	5,5563957560393542E-005	0,10001512481961083	0,000255646504	0,0046659923562031174	-0,00017409444830338294	0,0046659923562031174
1	1	0	1	0	0	1	14666,00	0,100000001	2,57662439	5,5563997073719898E-005	0,10001519594359914	0,000257701584	0,0062217820590515443	-0,00023214305389816038	0,0062217820590515443
1	1	0	1	0	0	1	14722,00	0,100000001	2,59340882	5,5563902998136147E-005	0,10001502660754635	0,000259379856	0,0077775726761462272	-0,00029019169360469478	0,0077775726761462272
1	1	0	1	0	0	1	14778,00	0,100000001	2,60904765	5,5563808275593651E-005	0,10001485610696778	0,000260943518	0,0093333608367029466	-0,00034824024165449504	0,0093333608367029466
1	1	0	1	0	0	1	14834,00	0,100000001	2,62449527	5,5563743347922957E-005	0,10001473923715914	0,000262488204	0,010889148234450182	-0,00040628876124284774	0,010889148234450182
1	1	0	1	0	0	1	14890,00	0,100000001	2,64028692	5,5563736421780454E-005	0,10001472677010246	0,000264067581	0,012444933104635144	-0,0004643371865244537	0,012444933104635144
1	1	0	1	0	0	1	14946,00	0,100000001	2,65663218	5,556367172259424E-005	0,10001461031156586	0,000265702023	0,014000716397735424	-0,00052238555296290982	0,014000716397735424
1	1	0	1	0	0	1	15002,00	0,100000001	2,67377925	5,5563626930945446E-005	0,10001452968659706	0,000267416763	0,01555649799342664	-0,00058043385606875149	0,01555649799342664
1	1	0	1	0	0	1	15058,00	0,100000001	2,69212961	5,5563683682845696E-005	0,10001463184001875	0,000269252341	0,017112281493965571	-0,00063848223024702246	0,017112281493965571
1	1	0	1	0	0	1	15114,00	0,100000001	2,7116828	5,556377789709303E-005	0,100014801425666	0,00027120841	0,018668065576314128	-0,00069653062613339302	0,018668065576314128
1	1	0	1	0	0	1	15170,00	0,100000001	2,73270631	5,5563744177834854E-005	0,10001474073100054	0,0002733109	0,020223849548597341	-0,00075457901791307738	0,020223849548597341
1	1	0	1	0	0	1	15226,00	0,100000001	2,75529552	5,5563712896986144E-005	0,10001468442547219	0,000275569997	0,021779632487879056	-0,00081262737115008717	0,021779632487879056
1	1	0	1	0	0	1	15282,00	0,100000001	2,78011894	5,5563576567504141E-005	0,1000144390324016	0,00027805203	0,023335415062400656	-0,00087067571077740646	0,023335415062400656
1	1	0	1	0	0	1	15338,00	0,100000001	2,80801654	5,5563695088442829E-005	0,10001465237009384	0,000280842796	0,024891197335278035	-0,0009287240391499744	0,024891197335278035
1	1	0	1	0	0	1	15394,00	0,100000001	2,84011507	5,5563591988964211E-005	0,10001446679103008	0,000284052599	0,026446977325362083	-0,00098677228234845402	0,026446977325362083
1	1	0	1	0	0	1	15450,00	0,100000001	2,87721658	5,5563834212306477E-005	0,10001490279305142	0,000287764531	0,028002760180592982	-0,0010448206324494146	0,028002760180592982
1	1	0	1	0	0	1	15506,00	0,100000001	2,92098188	5,5563880990776755E-005	0,10001498699429894	0,000292141951	0,029558545874940474	-0,0011028690884816326	0,029558545874940474
1	1	0	1	0	0	1	15562,00	0,100000001	2,97366476	5,5563981470548448E-005	0,10001516785789019	0,000297411578	0,031114334468848211	-0,0011609176527003421	0,031114334468848211
1	1	0	1	0	0	1	15618,00	0,100000001	3,03786182	5,5563955427871808E-005	0,10001512098107168	0,000303832116	0,032670124272960787	-0,0012189662620734211	0,032670124272960787
1	1	0	1	0	0	1	15674,00	0,100000001	3,1187861	5,5563876914067398E-005	0,10001497965622203	0,000311925338	0,034225913282344371	-0,0012770148417940928	0,034225913282344371
1	1	0	1	0	0	1	15730,00	0,100000001	3,22382712	5,5563933947434029E-005	0,1000150823162832	0,000322431326	0,035781702338644256	-0,0013350634232652749	0,035781702338644256
1	1	0	1	0	0	1	15786,00	0,100000001	3,36333466	5,5563792000628186E-005	0,10001482681202958	0,000336383324	0,037337489571717926	-0,0013931119367094354	0,037337489571717926
1	1	0	1	0	0	1	15842,00	0,100000001	3,54884171	5,5563728035324147E-005	0,10001471167448093	0,000354936376	0,038893274964421613	-0,0014511603814869174	0,038893274964421613
1	1	0	1	0	0	1	15898,00	0,100000001	3,79188156	5,5563755420347053E-005	0,10001476096752277	0,000379244128	0,040449060795288986	-0,0015092088426128758	0,040449060795288986
1	1	0	1	0	0	1	15954,00	0,100000001	4,09008694	5,5563711129956774E-005	0,1000146812448193	0,000409068743	0,042004845416114579	-0,0015672572585905485	0,042004845416114579
1	1	0	1	0	0	1	16010,00	0,100000001	4,36329126	5,556360649814208E-005	0,10001449290755056	0,000436392351	0,043560625609843686	-0,0016253055093872992	0,043560625609843686
1	0	0	0	0	0	2	16062,34	-0,100000001	4,02727795	-5,5543540908230675E-005	-0,09997837484527273	0,000402640697	0,044348099803205152	-0,001654687230311929	0,0003332656215313408
1	0	0	0	0	0	2	16118,34	-0,100000001	2,60831618	-5,554363130281369E-005	-0,099978537555524134	0,000260775647	0,042792879230698771	-0,001596659859735417	0,0018884861940377286
1	0	0	0	0	0	2	16174,34	-0,100000001	2,44816732	-5,5543600103507443E-005	-0,099978481396772211	0,000244764058	0,041237658686477683	-0,0015386324902142675	0,0034437067382588166
1	0	0	0	0	0	2	16230,34	-0,100000001	2,41314721	-5,5543505543222029E-005	-0,099978311188256422	0,000241262387	0,039682435865390592	-0,0014806050357401862	0,0049989295593458758
1	0	0	0	0	0	2	16286,34	-0,100000001	2,398597	-5,5543376890321568E-005	-0,099978079613032794	0,000239807123	0,038127218326685715	-0,0014225777783588874	0,0065541470980507648
1	0	0	0	0	0	2	16342,34	-0,100000001	2,38469577	-5,5543301995015808E-005	-0,099977944801480768	0,000238416978	0,036572003922172288	-0,0013645506379184858	0,0081093615025642022
1	0	0	0	0	0	2	16398,34	-0,100000001	2,36941981	-5,5543089446922144E-005	-0,099977562214907546	0,000236888824	0,035016792627945939	-0,0013065236135270766	0,0096645727967905498
1	0	0	0	0	0	2	16454,34	-0,100000001	2,35187173	-5,5543166424251264E-005	-0,099977700774101645	0,000235134721	0,03346158262165344	-0,001248496637190211	0,01121978280308305
1	0	0	0	0	0	2	16510,34	-0,100000001	2,33212757	-5,5543381894628205E-005	-0,099978088620784819	0,000233161656	0,031906370299182406	-0,0011904695744336106	0,012774995125554094
1	0	0	0	0	0	2	16566,34	-0,100000001	2,31051207	-5,5543658581044934E-005	-0,099978586656340979	0,00023100173	0,030351151796595078	-0,0011324422810885616	0,014330213628141424
1	0	0	0	0	0	2	16622,34	-0,100000001	2,28710175	-5,5543761157327232E-005	-0,099978771293651354	0,000228661622	0,028795928372387661	-0,0010744148041112499	0,015885437052348838
1	0	0	0	0	0	2	16678,34	-0,100000001	2,26212549	-5,5544094697054886E-005	-0,099979371665168384	0,000226165881	0,027240699008432099	-0,0010163871055139491	0,0174406664163044
1	0	0	0	0	0	2	16734,34	-0,100000001	2,23525906	-5,5544028595503834E-005	-0,099979252682375066	0,000223479525	0,025685465157919037	-0,00095835923951715546	0,018995900266817462
1	0	0	0	0	0	2	16790,34	-0,100000001	2,20625401	-5,5544230625861216E-005	-0,099979616337022746	0,000220580434	0,024130228795575187	-0,00090033127980057792	0,020551136629161315
1	0	0	0	0	0	2	16846,34	-0,100000001	2,17417455	-5,5544292166001267E-005	-0,099979727109276173	0,000217373381	0,022574990037355574	-0,00084230323069065446	0,022106375387380928
1	0	0	0	0	0	2	16902,34	-0,100000001	2,13894439	-5,5544265288031763E-005	-0,099979678728930496	0,000213850974	0,021019751206856227	-0,00078427517888387699	0,023661614217880278
1	0	0	0	0	0	2	16958,34	-0,100000001	2,09895968	-5,554432078699271E-005	-0,099979778627061389	0,000209853519	0,019464511741750771	-0,00072624710339909248	0,025216853682985731
1	0	0	0	0	0	2	17014,34	-0,100000001	2,05349469	-5,5544422678235507E-005	-0,099979962031300659	0,000205308315	0,017909270087373347	-0,00066821894622962701	0,026772095337363158
1	0	0	0	0	0	2	17070,34	-0,100000001	2,00104094	-5,5544427526907782E-005	-0,099979970758910848	0,000200064009	0,016354025577929702	-0,00061019068253380237	0,028327339846806803
1	0	0	0	0	0	2	17126,34	-0,100000001	1,93961263	-5,5544414677967622E-005	-0,099979947630818291	0,000193922373	0,014798782523685866	-0,00055216247313343904	0,02988258290105063
1	0	0	0	0	0	2	17182,34	-0,100000001	1,86705196	-5,5544507467498381E-005	-0,09998011465197568	0,000186668069	0,013243539928780254	-0,00049413428087160256	0,031437825495956237
1	0	0	0	0	0	2	17238,34	-0,100000001	1,78260088	-5,554454384619991E-005	-0,099980180133639206	0,000178224756	0,011688295458519216	-0,0004361060186377337	0,03299306996621728
1	0	0	0	0	0	2	17294,34	-0,100000001	1,68458676	-5,5544544754342899E-005	-0,099980181768296627	0,000168425293	0,010133049498182627	-0,00037807770080714246	0,034548315926553888
1	0	0	0	0	0	2	17350,34	-0,100000001	1,57545936	-5,5544482746885882E-005	-0,099980070154872653	0,000157514543	0,008577804566817161	-0,00032004942136884736	0,036103560857919354
1	0	0	0	0	0	2	17406,34	-0,100000001	1,46176827	-5,5544471113632122E-005	-0,099980049215015616	0,000146147664	0,0070225578513745715	-0,00026202107536423603	0,037658807573361939
1	0	0	0	0	0	2	17462,34	-0,100000001	1,35021579	-5,5544630920721427E-005	-0,099980336867779853	0,000134995033	0,0054673073144406163	-0,00020399258677464384	0,039214058110295885
1	0	0	0	0	0	2	17518,34	-0,100000001	1,26950169	-5,5544616550621056E-005	-0,099980311001598874	0,000126925181	0,0039120577930245222	-0,00014596413607538842	0,040769307631711968
1	0	0	0	0	0	2	17574,34	-0,100000001	1,23194194	-5,5544614096896518E-005	-0,099980306584894643	0,000123169928	0,0023568083681542925	-8,7935688978388992E-005	0,042324557056582189
1	0	0	0	0	0	2	17630,34	-0,100000001	1,20958185	-5,5544625906894605E-005	-0,099980327842891469	0,00012093439	0,00080155787910439117	-2,9907202175415226E-005	0,043879807545632077
1	0	0	0	0	0	2	17659,76	-0,100000001	1,2000916	-3,9386749932335482E-005	-0,099980469236875238	0,000119985722	-1,5453544171725322E-005	5,7659251055818982E-007	0,044696818968908192