Folder: thesis/Experimentelles/Rohdaten/Batteriemessungen/AlteZelle/Batterietest Li vs LATP/ECLab-Export (part 6)

File: LATP_LP30_Li_Entladen bis 0k5V_02_GCPL_C01.mpt
EC-Lab ASCII FILE
Nb header lines : 68

Galvanostatic Cycling with Potential Limitation

Run on channel : 1 (SN 6985)
Grouped channel(s) : 1
User :
CE vs. WE compliance from -10 V to 10 V
Electrode connection : standard
Ewe ctrl range : min = 0,00 V, max = 5,00 V
Acquisition started on : 07.09.2015 17:19:07
Saved on :
	File : LATP_LP30_Li_Entladen bis 0k5V_02_GCPL_C01.mpr
	Directory : C:\Hupfer\Batterietest Li vs LATP\
	Host : 192.168.0.2
Device : VMP3 (SN 0324)
Address : 192.168.0.1
EC-Lab for windows v10.33 (software)
Internet server v10.33 (firmware)
Command interpretor v10.32 (firmware)
Electrode material :
Initial state :
Electrolyte :
Comments :
Mass of active material : 0,001 mg
 at x = 0,000
Molecular weight of active material (at x = 0) : 0,001 g/mol
Atomic weight of intercalated ion : 0,001 g/mol
Acquisition started at : xo = 0,000
Number of e- transfered per intercalated ion : 1
for DX = 1, DQ = 26,801 mA.h
Battery capacity : 0,000 A.h
Electrode surface area : 0,001 cm²
Characteristic mass : 0,001 g
Ns                  0                   1
Set I/C             I                   I
Is                  0,000               -500,000
unit Is             mA                  nA
vs.                 <None>              <None>
N                   1                   1
I sign              > 0                 > 0
t1 (h:m:s)          0:00:0,0000         10:00:0,0000
I Range             10 µA               10 µA
Bandwidth           5                   5
dE1 (mV)            0,00                10,00
dt1 (s)             0,0000              10,0000
EM (V)              0,000               0,500
tM (h:m:s)          0:00:0,0000         24:00:0,0000
Im                  0,000               0,000
unit Im             mA                  mA
E range min (V)     0,000               0,000
E range max (V)     5,000               5,000
dq                  0,000               1,000
unit dq             mA.h                mA.h
dtq (s)             0,0000              120,0000
dQM                 0,000               0,000
unit dQM            mA.h                mA.h
dxM                 0,000               0,000
tR (h:m:s)          0:00:10,0000        0:00:0,0000
dER/dt (mV/h)       0,0                 0,1
dER (mV)            0,00                5,00
dtR (s)             1,0000              120,0000
EL (V)              pass                0,000
goto Ns'            0                   0
nc cycles           0                   0

mode	ox/red	error	control changes	Ns changes	counter inc.	Ns	time/s	control/V/mA	Ewe/V	dq/mA.h	<I>/mA	P/W	(Q-Qo)/mA.h	x	Capacity/mA.h
3	1	0	0	0	0	0	7230,0005	0	1,34046638	0	0	0	0	0	0
1	0	0	0	0	0	1	7668,3167	-0,000500000024	1,06731379	-1,3892050936863395E-006	-0,00050011383978205722	5,33778405E-007	-5,9500346078479194E-005	2,220037911254191E-006	5,9500346078479194E-005
1	0	0	0	0	0	1	8248,3166	-0,000500000024	0,937105536	-1,3892561638365603E-006	-0,00050013222503635923	4,68676689E-007	-0,00014007500564985418	5,226386793644169E-006	0,00014007500564985418
1	0	0	0	0	0	1	8828,3166	-0,000500000024	0,862005293	-1,3892093265991813E-006	-0,00050011536363069875	4,3110208E-007	-0,00022064836617940787	8,2326872070372134E-006	0,00022064836617940787
1	0	0	0	0	0	1	9408,3166	-0,000500000024	0,817800581	-1,3892232167450453E-006	-0,00050012036408327034	4,08998716E-007	-0,00030122216004734714	1,1239003788868054E-005	0,00030122216004734714
1	0	0	0	0	0	1	9988,3166	-0,000500000024	0,790189326	-1,3891691851086864E-006	-0,00050010091269394554	3,95174396E-007	-0,00038179512885429581	1,4245289586564032E-005	0,00038179512885429581
1	0	0	0	0	0	1	10568,3166	-0,000500000024	0,771132588	-1,3890614852554992E-006	-0,00050006214074632877	3,85614214E-007	-0,00046236439122936461	1,7251437092303216E-005	0,00046236439122936461
1	0	0	0	0	0	1	11148,3166	-0,000500000024	0,75652498	-1,389135764290889E-006	-0,00050008888119939296	3,7832973E-007	-0,00054293409318551302	2,025760099940351E-005	0,00054293409318551302
1	0	0	0	0	0	1	11728,3166	-0,000500000024	0,74464798	-1,3890574852864827E-006	-0,00050006070075746541	3,72369186E-007	-0,0006235043436153047	2,3263785370792858E-005	0,0006235043436153047
1	0	0	0	0	0	1	12308,3166	-0,000500000024	0,734126687	-1,3890927995671518E-006	-0,00050007341389866022	3,67117252E-007	-0,00070407075071631642	2,6269826342418016E-005	0,00070407075071631642
1	0	0	0	0	0	1	12888,3166	-0,000500000024	0,724560142	-1,3890450079828347E-006	-0,00050005620892809773	3,62320804E-007	-0,00078463587933321805	2,9275819612082086E-005	0,00078463587933321805
1	0	0	0	0	0	1	13468,3166	-0,000500000024	0,71501267	-1,3889931100226629E-006	-0,00050003752566220966	3,57533168E-007	-0,00086519878169096768	3,2281729817023962E-005	0,00086519878169096768
1	0	0	0	0	0	1	14048,3166	-0,000500000024	0,706171751	-1,3890060464618726E-006	-0,0005000421827803817	3,53115666E-007	-0,00094576127788864614	3,5287624867587501E-005	0,00094576127788864614
1	0	0	0	0	0	1	14628,3166	-0,000500000024	0,697368979	-1,388995710702147E-006	-0,00050003846190683546	3,48711325E-007	-0,0010263227449890304	3,8293481521147347E-005	0,0010263227449890304
1	0	0	0	0	0	1	15208,3166	-0,000500000024	0,688547134	-1,3889345337196979E-006	-0,00050001643819288698	3,44284899E-007	-0,0011068833088062302	4,1299304471997107E-005	0,0011068833088062302
1	0	0	0	0	0	1	15788,3166	-0,000500000024	0,680145383	-1,3890039547340066E-006	-0,00050004142975834054	3,40100883E-007	-0,0011874441724871698	4,430513861116617E-005	0,0011874441724871698
1	0	0	0	0	0	1	16368,3165	-0,000500000024	0,671762705	-1,3889776824152149E-006	-0,00050003197172346118	3,35902826E-007	-0,001268005174368225	4,7310977906767347E-005	0,001268005174368225
1	0	0	0	0	0	1	16948,3165	-0,000500000024	0,66345644	-1,3889992797436813E-006	-0,00050003974676180333	3,31754592E-007	-0,00134856672867326	5,0316837814049965E-005	0,00134856672867326
1	0	0	0	0	0	1	17528,3165	-0,000500000024	0,655532062	-1,3890217604639472E-006	-0,00050004783982119693	3,2779738E-007	-0,0014291295132058014	5,3322743622774912E-005	0,0014291295132058014
1	0	0	0	0	0	1	18108,3165	-0,000500000024	0,647550404	-1,3889166893431037E-006	-0,00050001001421723539	3,23781677E-007	-0,0015096905156883258	5,6328582940817722E-005	0,0015096905156883258
1	0	0	0	0	0	1	18688,3165	-0,000500000024	0,639683247	-1,3889543749456709E-006	-0,00050002358103432378	3,19856696E-007	-0,0015902480882296864	5,9334294283144102E-005	0,0015902480882296864
1	0	0	0	0	0	1	19268,3165	-0,000500000024	0,631873429	-1,3890416901655651E-006	-0,00050005501451386624	3,15971477E-007	-0,0016708074066682602	6,234007076724288E-005	0,0016708074066682602
1	0	0	0	0	0	1	19848,3165	-0,000500000024	0,624483705	-1,3888846607717115E-006	-0,0004999984839313945	3,122409E-007	-0,0017513644369369757	6,5345761876647795E-005	0,0017513644369369757
1	0	0	0	0	0	1	20428,3165	-0,000500000024	0,617055833	-1,3888891310295245E-006	-0,00050000009322422662	3,08527973E-007	-0,0018319207853238621	6,8351427544124851E-005	0,0018319207853238621
1	0	0	0	0	0	1	21008,3165	-0,000500000024	0,609761536	-1,3889227385936666E-006	-0,00050001219194746432	3,04888204E-007	-0,0019124780488552608	7,1357127356874086E-005	0,0019124780488552608
1	0	0	0	0	0	1	21588,3165	-0,000500000024	0,602486372	-1,3888725650483845E-006	-0,00049999412947094406	3,01239652E-007	-0,0019930343734052982	7,4362792134966272E-005	0,0019930343734052982
[...]
1	0	0	0	0	0	1	27388,3164	-0,000500000024	0,536933601	-1,3887382632011498E-006	-0,00049994578080535418	2,68437702E-007	-0,002798541880425223	0,00010441736023824126	0,002798541880425223
1	0	0	0	0	0	1	27968,3164	-0,000500000024	0,530613184	-1,3886451557627878E-006	-0,00049991226212713805	2,65260041E-007	-0,0028790870630834752	0,00010742260929737051	0,0028790870630834752
1	0	0	0	0	0	1	28548,3164	-0,000500000024	0,524655581	-1,388668845724573E-006	-0,00049992079051348403	2,62286221E-007	-0,0029596301634714554	0,00011042778066419624	0,0029596301634714554
1	0	0	0	0	0	1	29128,3164	-0,000500000024	0,51865977	-1,3886838030076534E-006	-0,00049992617513545818	2,59291596E-007	-0,0030401737039752358	0,00011343296845233424	0,0030401737039752358
1	0	0	0	0	0	1	29708,3164	-0,000500000024	0,512644887	-1,3886729220426384E-006	-0,00049992225798800531	2,5628259E-007	-0,0031207180000427936	0,00011643818443157266	0,0031207180000427936
1	0	0	0	0	0	1	30288,3164	-0,000500000024	0,506839991	-1,3886804959620349E-006	-0,00049992498459902106	2,53381984E-007	-0,0032012590215121677	0,00011944327823115005	0,0032012590215121677
1	0	0	0	0	0	1	30868,3164	-0,000500000024	0,501149714	-1,3886660072861962E-006	-0,00049991976867565606	2,5053464E-007	-0,0032818019320410387	0,00012244844251407715	0,0032818019320410387
2	1	0	1	0	0	1	36269,7742	0,499964178	0,49998492	-1,2507146486812014E-005	-0,00037521439390546912	1,87601543E-007	-0,0039223069782678042	0,00014634654695699139	0,0039223069782678042
2	1	0	1	0	0	1	43229,7742	0,499964178	0,499946743	-1,030139965604111E-005	-0,00030904198910559776	1,54504534E-007	-0,0045745669540096288	0,00017068324362478326	0,0045745669540096288
2	1	0	1	0	0	1	50189,7742	0,499964178	0,5000422	-9,2638570594087155E-006	-0,00027791571126460314	1,38969583E-007	-0,005137749799323559	0,00019169635279083485	0,005137749799323559
2	1	0	1	0	0	1	57149,7742	0,499964178	0,49998492	-8,6456811453228723E-006	-0,0002593704338765711	1,29681311E-007	-0,0056558424818658496	0,0002110270873595079	0,0056558424818658496
2	1	0	1	0	0	1	64109,7742	0,499964178	0,500004053	-8,1902806810006349E-006	-0,00024570841997235142	1,22855212E-007	-0,0061429776951223488	0,00022920275712636794	0,0061429776951223488
2	1	0	1	0	0	1	71069,7823	0,499964178	0,49992764	-7,6716113034498342E-006	-0,00023014800996109075	1,15057354E-007	-0,0066001197268357517	0,00024625934096359354	0,0066001197268357517
2	1	0	1	0	0	1	78029,7923	0,499964178	0,49998492	-7,3372553503496525E-006	-0,00022011734576634042	1,10055353E-007	-0,0070349182157889958	0,00026248225717922493	0,0070349182157889958
2	1	0	1	0	0	1	84989,8022	0,499964178	0,499908537	-7,248115459207232E-006	-0,00021744315277234118	1,08701691E-007	-0,0074556380683377114	0,00027817988054167542	0,0074556380683377114
2	1	0	1	0	0	1	91949,8122	0,499964178	0,5000422	-7,1601870457662797E-006	-0,00021480530413175504	1,07411715E-007	-0,0078807746119953075	0,00029404229658770246	0,0078807746119953075
2	1	0	1	0	0	1	98909,8221	0,499964178	0,5000422	-6,7532860241513434E-006	-0,00020259829102898781	1,01307698E-007	-0,0082821148112729114	0,00030901683903038682	0,0082821148112729114
2	1	0	1	0	0	1	105869,8321	0,499964178	0,500080407	-6,4418202106381722E-006	-0,00019325432995172515	9,6642701E-008	-0,0086646552623093926	0,00032328993758966451	0,0086646552623093926
2	1	0	1	0	0	1	112829,8420	0,499964178	0,500023127	-6,1559989870099046E-006	-0,00018467970545377955	9,23441235E-008	-0,0090297131367502746	0,00033691073771058618	0,0090297131367502746
2	1	0	1	0	0	1	117389,7671	0,499964178	0,499965817	-5,9831885732944806E-006	-0,00017961724066524522	8,98024837E-008	-0,009260232839958231	0,00034551173777431232	0,009260232839958231