Folder: thesis/Experimentelles/Rohdaten/Batteriemessungen/AlteZelle/Batterietest Li vs LATP/ECLab-Export (part 4)

File: LATP vs Li Batterietest Probe2_02_GCPL_C02.mpt
EC-Lab ASCII FILE
Nb header lines : 83

Galvanostatic Cycling with Potential Limitation

Run on channel : 2 (SN 6986)
Grouped channel(s) : 2
User :
CE vs. WE compliance from -10 V to 10 V
Electrode connection : standard
Ewe ctrl range : min = 0,00 V, max = 5,00 V
Acquisition started on : 10.28.2014 11:51:47
Saved on :
	File : LATP vs Li Batterietest Probe2_02_GCPL_C02.mpr
	Directory : C:\Hupfer\Batterietest Li vs LATP\
	Host : 192.168.0.2
Device : VMP3 (SN 0324)
Address : 192.168.0.1
EC-Lab for windows v10.33 (software)
Internet server v10.33 (firmware)
Command interpretor v10.32 (firmware)
Electrode material : Lithium - LATP folie
Initial state : unbekannt
Electrolyte : LP30
Comments : Batterietest
Comments : Probe 2
Mass of active material : 0,001 mg
 at x = 0,000
Molecular weight of active material (at x = 0) : 0,001 g/mol
Atomic weight of intercalated ion : 0,001 g/mol
Acquisition started at : xo = 0,000
Number of e- transfered per intercalated ion : 1
for DX = 1, DQ = 26,801 mA.h
Battery capacity : 0,000 A.h
Reference electrode : Li+/Li (-3,020 V)
Electrode surface area : 0,001 cm²
Characteristic mass : 0,001 g
Ns                  0                   1                   2
Set I/C             I                   I                   I
Is                  0,000               100,000             -100,000
unit Is             mA                  µA                  µA
vs.                 <None>              <None>              <None>
N                   1                   1                   1
I sign              > 0                 > 0                 > 0
t1 (h:m:s)          0:00:0,0000         60:00:0,0000        60:00:0,0000
I Range             100 µA              100 µA              100 µA
Bandwidth           5                   5                   5
dE1 (mV)            0,00                0,00                0,00
dt1 (s)             0,0000              2,0000              2,0000
EM (V)              0,000               4,500               1,200
tM (h:m:s)          0:00:0,0000         0:00:0,0000         0:00:0,0000
Im                  0,000               0,000               0,000
unit Im             mA                  mA                  mA
E range min (V)     0,000               0,000               0,000
E range max (V)     5,000               5,000               5,000
dq                  0,000               1,000               1,000
unit dq             mA.h                mA.h                mA.h
dtq (s)             0,0000              120,0000            120,0000
dQM                 0,000               0,000               0,000
unit dQM            mA.h                mA.h                mA.h
dxM                 0,000               0,000               0,000
tR (h:m:s)          0:00:0,0000         0:00:0,0000         0:00:0,0000
dER/dt (mV/h)       0,0                 0,1                 0,1
dER (mV)            0,00                5,00                5,00
dtR (s)             1,0000              120,0000            120,0000
EL (V)              pass                3,500               3,500
goto Ns'            0                   0                   0
nc cycles           0                   0                   0

Number of loops : 11
Loop 0 from point number 0 to 1323
Loop 1 from point number 1324 to 2973
Loop 2 from point number 2974 to 4591
Loop 3 from point number 4592 to 6182
Loop 4 from point number 6183 to 7749
Loop 5 from point number 7750 to 9314
Loop 6 from point number 9315 to 10878
Loop 7 from point number 10879 to 12434
Loop 8 from point number 12435 to 13983
Loop 9 from point number 13984 to 15525
Loop 10 from point number 15526 to 17061

mode	ox/red	error	control changes	Ns changes	counter inc.	Ns	time/s	control/V/mA	Ewe/V	dq/mA.h	<I>/mA	P/W	Capacity/mA.h	(Q-Qo)/mA.h	x
1	1	0	1	1	0	1	1800,0010	0,100000001	2,47670197	0	0	0	0	0	0
1	1	0	1	0	0	1	2398,0009	0,100000001	3,23444891	5,555943149824937E-005	0,10000697922323766	0,000323467451	0,016610929018202093	0,016610929018202093	-0,00061977609530071424
1	0	0	0	0	0	2	2992,8115	-0,100000001	2,39340472	-5,5542775249729555E-005	-0,099976997975144602	0,000239285422	0,0067206629696513229	0,019691242554065872	-0,0007347067348493879
1	0	0	0	0	0	2	3590,8115	-0,100000001	2,16284561	-5,5542769310375053E-005	-0,09997698728430624	0,000216234781	0,023327907685109702	0,0030839978386074733	-0,00011506810583763869
1	0	0	0	0	0	2	4188,8115	-0,100000001	1,38963389	-5,5542725043992205E-005	-0,099976906289625715	0,000138931297	0,039935143880597421	-0,013523238356880222	0,00050457020528254842
1	1	0	1	0	0	1	4784,4047	0,100000001	2,60970068	5,5559419198168653E-005	0,10000695576750714	0,000260988221	0,0094993163342941939	-0,011065139960937558	0,00041285524918148454
1	1	0	1	0	0	1	5382,4047	0,100000001	2,81773376	5,5559579735828768E-005	0,10000724473529885	0,000281793793	0,026111617003071056	0,0055471607078393018	-0,00020697202424637805
1	1	0	1	0	0	1	5980,4047	0,100000001	4,07087374	5,5559379745274784E-005	0,10000688475229733	0,000407115411	0,042723906966957178	0,02215945067172545	-0,00082679889826037542
1	0	0	0	0	0	2	6575,5055	-0,100000001	2,3343153	-5,5542915803276832E-005	-0,099977249656342195	0,000233378421	0,01316365749410871	0,012359926003131251	-0,00046116545727407981
1	0	0	0	0	0	2	7173,5055	-0,100000001	1,97407639	-5,5542812892546253E-005	-0,099977064417024922	0,000197362358	0,029770966063407968	-0,0042473825661680147	0,00015847555421032461
1	1	0	1	0	0	1	7768,4469	0,100000001	1,68113232	5,5559508795539533E-005	0,10000711704277667	0,000168125203	0,00088758003376913101	-0,018992046091465907	0,00070861877475014106
1	1	0	1	0	0	1	8366,4468	0,100000001	2,68546009	5,5559460077020858E-005	0,100007029349442	0,00026856488	0,017499863076347363	-0,0023797630488876646	8,879215897944759E-005
1	1	0	1	0	0	1	8964,4468	0,100000001	3,08315897	5,5559293967982131E-005	0,10000673035316867	0,000308336661	0,034112144561666925	0,014232518436431888	-0,00053103439868783034
1	0	0	0	0	0	2	9560,2408	-0,100000001	2,40961695	-5,5542310245335104E-005	-0,099976159652033894	0,00024090425	0,0056097938256131277	0,01956219759553752	-0,0007298918939439031
1	0	0	0	0	0	2	10158,2408	-0,100000001	2,1904068	-5,5542729491160979E-005	-0,099976914294529613	0,000218990113	0,022217026138432739	0,0029549652827178995	-0,00011025372769128218
1	0	0	0	0	0	2	10756,2408	-0,100000001	1,35167789	-5,5542742928283078E-005	-0,099976938481349683	0,000135136623	0,038824274523603424	-0,013652283102452784	0,0005093850382423664
1	1	0	1	0	0	1	11351,7478	0,100000001	2,61330533	5,5559277609818509E-005	0,10000670090847379	0,000261348032	0,010666033907323178	-0,0088586653607297984	0,00033052871521108141
1	1	0	1	0	0	1	11949,7478	0,100000001	2,84174728	5,5559551724957094E-005	0,10000719431572923	0,000284195179	0,027278280579498176	0,0077535813114451981	-0,00028929654353096646
1	1	0	1	0	0	1	12547,7478	0,100000001	4,45407295	5,5559174391130605E-005	0,10000651511483331	0,000445436308	0,0438904958412208	0,024365796573167824	-0,00090912063030680461
1	0	0	0	0	0	2	13142,8858	-0,100000001	2,29778981	-5,5542289432552128E-005	-0,09997612218902409	0,000229724115	0,015996130277437066	0,0089012960434725414	-0,00033211932330177568
1	0	0	0	0	0	2	13740,8858	-0,100000001	1,79175782	-5,5541614351587162E-005	-0,099974907043272448	0,000179130817	0,032603166777706394	-0,0077057404567967987	0,00028751153692132154
[...]
1	0	0	0	0	0	2	25079,0176	-0,100000001	4,24315977	-5,5542291853162982E-005	-0,099976126546123674	0,000424214668	0,00016663190001000963	0,024156977359349962	-0,00090132930467884122
1	0	0	0	0	0	2	25677,0176	-0,100000001	2,28914952	-5,5542449690815475E-005	-0,099976410653901594	0,000228860954	0,01677385614320553	0,0075497531161544538	-0,00028169143951474554
1	0	0	0	0	0	2	26275,0176	-0,100000001	1,70573699	-5,5542044753829638E-005	-0,099975681767318272	0,000170532221	0,033381028897051187	-0,0090574196376912013	0,00033794450451247878
1	1	0	1	0	0	1	26870,8722	0,100000001	2,57342291	5,555930864893728E-005	0,10000675677888826	0,000257359672	0,0068324234619890022	-0,011939459077866885	0,00044547727096867283
1	1	0	1	0	0	1	27468,8722	0,100000001	2,76602602	5,5559380636860928E-005	0,1000068863571524	0,000276621664	0,023444655443044179	0,004672772903188304	-0,00017434743962794259
1	1	0	1	0	0	1	28066,8722	0,100000001	3,93375516	5,555950250559383E-005	0,10000710572087427	0,000393403461	0,040056897619392717	0,021285015079536851	-0,00079417253062466099
1	0	0	0	0	0	2	28661,3478	-0,100000001	2,33538342	-5,554233300147785E-005	-0,099976200613091328	0,000233482759	0,013607914132980842	0,010579383842631803	-0,00039473103530144966
1	0	0	0	0	0	2	29259,3478	-0,100000001	1,90234149	-5,5542022092474835E-005	-0,09997564097687913	0,000190187813	0,030215064967296602	-0,0060277669916839642	0,00022490409087864349
1	1	0	1	0	0	1	29854,2628	0,100000001	2,53437972	5,5559302015437018E-005	0,10000674483858763	0,000253455073	0,0038322313836550067	-0,01488318900541399	0,00055531179245243693
1	1	0	1	0	0	1	30452,2628	0,100000001	2,71874309	5,5559154495596883E-005	0,10000647930287219	0,000271891913	0,020444485048299658	0,0017290646592306461	-6,4513727188054618E-005
1	1	0	1	0	0	1	31050,2628	0,100000001	3,42510653	5,5559122568203341E-005	0,10000642183356312	0,000342532643	0,037056714415449427	0,018341294026380435	-0,00068433834025634509
1	0	0	0	0	0	2	31646,0272	-0,100000001	2,36855197	-5,554207863037785E-005	-0,099975742745105792	0,000236797743	0,010830759833658736	0,013226578555149986	-0,00049350142921664781
1	0	0	0	0	0	2	32244,0272	-0,100000001	2,0244112	-5,5542264770716429E-005	-0,099976077797719296	0,000202392694	0,027437898276455293	-0,003380559887646567	0,0001261332346192029
1	1	0	1	0	0	1	32838,9589	0,100000001	1,85725582	5,5559286561691098E-005	0,10000671562476694	0,000185738056	0,0012209342070412114	-0,01745822834583184	0,00065138997242064218
1	1	0	1	0	0	1	33436,9590	0,100000001	2,68355274	5,555928376110064E-005	0,10000671058370414	0,000268373289	0,017833163736159587	-0,00084599881671346573	3,1565353309085901E-005
1	1	0	1	0	0	1	34034,9590	0,100000001	3,17318535	5,5559343765179315E-005	0,10000681859104555	0,000317340164	0,034445382425186944	0,015766219872313878	-0,00058825886134409933
1	0	0	0	0	0	2	34630,6840	-0,100000001	2,39109683	-5,5542282311038835E-005	-0,099976107973649894	0,000239052548	0,008386879267696288	0,015538892246528445	-0,00057977696198080128
1	0	0	0	0	0	2	35228,6840	-0,100000001	2,10556841	-5,5542509481310842E-005	-0,099976516880138739	0,000210507395	0,024994033975376435	-0,0010682624611517016	3,9858308719724704E-005
1	0	0	0	0	0	2	35826,6840	-0,100000001	1,21177471	-5,5542298491216365E-005	-0,099976137097969395	0,000121148558	0,041601196436773114	-0,017675424922548422	0,00065949386872184102
1	0	0	0	0	0	2	35861,9164	-0,100000001	1,199911	-3,4225001375294394E-005	-0,099975661089102131	0,000119961893	0,04257963723775408	-0,018653865723529402	0,00069600081053408947

File: LATP vs Li Batterietest Probe2_04_OCV_C02.mpt
EC-Lab ASCII FILE
Nb header lines : 48

Open Circuit Voltage

Run on channel : 2 (SN 6986)
Grouped channel(s) : 2
User :
CE vs. WE compliance from -10 V to 10 V
Electrode connection : standard
Ewe ctrl range : min = 0,00 V, max = 5,00 V
Acquisition started on : 10.28.2014 11:51:47
Saved on :
	File : LATP vs Li Batterietest Probe2_04_OCV_C02.mpr
	Directory : C:\Hupfer\Batterietest Li vs LATP\
	Host : 192.168.0.2
Device : VMP3 (SN 0324)
Address : 192.168.0.1
EC-Lab for windows v10.33 (software)
Internet server v10.33 (firmware)
Command interpretor v10.32 (firmware)
Electrode material : Lithium - LATP folie
Initial state : unbekannt
Electrolyte : LP30
Comments : Batterietest
Comments : Probe 2
Mass of active material : 0,001 mg
 at x = 0,000
Molecular weight of active material (at x = 0) : 0,001 g/mol
Atomic weight of intercalated ion : 0,001 g/mol
Acquisition started at : xo = 0,000
Number of e- transfered per intercalated ion : 1
for DX = 1, DQ = 26,801 mA.h
Battery capacity : 0,000 A.h
Reference electrode : Li+/Li (-3,020 V)
Electrode surface area : 0,001 cm²
Characteristic mass : 0,001 g
tR (h:m:s)          0:30:0,0000
dER/dt (mV/h)       0,0
dER (mV)            0,00
dtR (s)             10,0000
E range min (V)     0,000
E range max (V)     5,000

Number of loops : 1
Loop 0 from point number 0 to 180

mode	error	time/s	Ewe/V
3	0	35861,9670	1,21133602
3	0	35871,9670	1,29607904
3	0	35881,9670	1,32209504
3	0	35891,9670	1,34269428
3	0	35901,9670	1,36134803
3	0	35911,9670	1,37912452
3	0	35921,9670	1,3964622
3	0	35931,9670	1,41347563
3	0	35941,9670	1,43014574
3	0	35951,9670	1,446854
3	0	35961,9670	1,46350503
3	0	35971,9670	1,47998452
3	0	35981,9670	1,49631131
3	0	35991,9670	1,51275253
3	0	36001,9670	1,5290221
3	0	36011,9670	1,54542518
3	0	36021,9670	1,56182837
3	0	36031,9670	1,5782696
3	0	36041,9670	1,59486341
3	0	36051,9670	1,61126649
3	0	36061,9670	1,62789845
3	0	36071,9670	1,64435887
3	0	36081,9670	1,66093361
3	0	36091,9670	1,6775465
3	0	36101,9670	1,69414032
3	0	36111,9670	1,71081042
3	0	36121,9670	1,7275188
3	0	36131,9670	1,74416983
3	0	36141,9670	1,76076365
3	0	36151,9670	1,7771858
3	0	36161,9670	1,7936461
3	0	36171,9670	1,80989671
3	0	36181,9670	1,82588017
3	0	36191,9670	1,84190178
3	0	36201,9670	1,85756099
3	0	36211,9670	1,87310576
3	0	36221,9670	1,8884027
3	0	36231,9670	1,90352786
3	0	36241,9670	1,91832876
3	0	36251,9670	1,93299627
3	0	36261,9670	1,94726312
3	0	36271,9670	1,96116757
3	0	36281,9670	1,97491944
3	0	36291,9670	1,98842347
3	0	36301,9670	2,00160313
3	0	36311,9670	2,01445866
3	0	36321,9670	2,0268755
3	0	36331,9670	2,03925395
3	0	36341,9670	2,05107951
3	0	36351,9670	2,06263804
3	0	36361,9670	2,07394862
3	0	36371,9670	2,08491564
3	0	36381,9670	2,09563494
3	0	36391,9670	2,10593462
3	0	36401,9670	2,11610079
3	0	36411,9670	2,12575173
3	0	36421,9670	2,13521218
3	0	36431,9670	2,14442468
3	0	36441,9670	2,15327477
3	0	36451,9670	2,16191483
3	0	36461,9670	2,17019272
3	0	36471,9670	2,17814636
3	0	36481,9670	2,18568039
3	0	36491,9670	2,19309998
3	0	36501,9670	2,20013785
3	0	36511,9670	2,20702338
3	0	36521,9670	2,21333671
3	0	36531,9670	2,2196691
3	0	36541,9670	2,22548652
3	0	36551,9670	2,23107505
3	0	36561,9670	2,23641562
3	0	36571,9670	2,24145079
3	0	36581,9670	2,2463336
3	0	36591,9670	2,25093031
3	0	36601,9670	2,25524092
3	0	36611,9670	2,25943708
3	0	36621,9670	2,26325178
3	0	36631,9670	2,26699018
3	0	36641,9670	2,270576
3	0	36651,9670	2,27383757
3	0	36661,9670	2,27702284
3	0	36671,9670	2,2799983
3	0	36681,9670	2,28287816
3	0	36691,9670	2,28549123
3	0	36701,9670	2,288028
3	0	36711,9670	2,29048848
3	0	36721,9670	2,2927773
3	0	36731,9670	2,29506612
3	0	36741,9670	2,2971642
3	0	36751,9670	2,29928136
3	0	36761,9670	2,30132222
3	0	36771,9670	2,30311513
3	0	36781,9670	2,30486989
3	0	36791,9670	2,3066628
3	0	36801,9670	2,30828404
3	0	36811,9670	2,30977178
3	0	36821,9670	2,31139302
3	0	36831,9670	2,3129189
3	0	36841,9670	2,31425405
3	0	36851,9670	2,31568456
3	0	36861,9670	2,31709599
3	0	36871,9670	2,31827855
3	0	36881,9670	2,3196137
3	0	36891,9670	2,32085347
3	0	36901,9670	2,3220551
3	0	36911,9670	2,32316113
3	0	36921,9670	2,32417202
3	0	36931,9670	2,32524014
3	0	36941,9670	2,32638454
3	0	36951,9670	2,32731915
3	0	36961,9670	2,32840633
3	0	36971,9670	2,32936001
3	0	36981,9670	2,33042812
3	0	36991,9670	2,33119106
3	0	37001,9670	2,33216381
3	0	37011,9670	2,3329649
3	0	37021,9670	2,33386135
3	0	37031,9670	2,33460522
3	0	37041,9670	2,33563519
3	0	37051,9670	2,33653164
3	0	37061,9670	2,33714199
3	0	37071,9670	2,33788586
3	0	37081,9670	2,33872509
3	0	37091,9670	2,33946896
3	0	37101,9670	2,34019375
3	0	37111,9670	2,34086132
3	0	37121,9670	2,34160519
3	0	37131,9670	2,34223461
3	0	37141,9670	2,34286404
3	0	37151,9670	2,3436079
3	0	37161,9670	2,34435177
3	0	37171,9670	2,34500027
3	0	37181,9670	2,34557247
3	0	37191,9670	2,34629726
3	0	37201,9670	2,34667873
3	0	37211,9670	2,34732723
3	0	37221,9670	2,3479948
3	0	37231,9670	2,34852886
3	0	37241,9670	2,34906292
3	0	37251,9670	2,34959698
3	0	37261,9670	2,3502264
3	0	37271,9670	2,35079861
3	0	37281,9670	2,35125637
3	0	37291,9670	2,35184765
3	0	37301,9670	2,35240078
3	0	37311,9670	2,35291576
3	0	37321,9670	2,35335445
3	0	37331,9670	2,35386944
3	0	37341,9670	2,35428905
3	0	37351,9670	2,35488033
3	0	37361,9670	2,35541439
3	0	37371,9670	2,35577679
3	0	37381,9670	2,35621548
3	0	37391,9670	2,35665417
3	0	37401,9670	2,35722637
3	0	37411,9670	2,35753155
3	0	37421,9670	2,35806561
3	0	37431,9670	2,35854244
3	0	37441,9670	2,35888577
3	0	37451,9670	2,35938168
3	0	37461,9670	2,35983944
3	0	37471,9670	2,36010647
3	0	37481,9670	2,36052608
3	0	37491,9670	2,36096478
3	0	37501,9670	2,36138439
3	0	37511,9670	2,36172771
3	0	37521,9670	2,36209011
3	0	37531,9670	2,36249065
3	0	37541,9670	2,36287212
3	0	37551,9670	2,36332989
3	0	37561,9670	2,36365414
3	0	37571,9670	2,36405444
3	0	37581,9670	2,36453128
3	0	37591,9670	2,36468387
3	0	37601,9670	2,36517978
3	0	37611,9670	2,36546588
3	0	37621,9670	2,36584735
3	0	37631,9670	2,36615252
3	0	37641,9670	2,36641955
3	0	37651,9670	2,36691546
3	0	37661,9670	2,36723971