Folder: thesis/Experimentelles/Rohdaten/Batteriemessungen/AlteZelle/Batterietest Li vs LATP/ZView-Export (part 2)

File: LATP vs Li Batterietest Probe1_02_GCPL_C01_loop8.txt
EC-Lab ASCII FILE
Nb header lines : 3
mode	ox/red	error	control changes	Ns changes	counter inc.	Ns	time/s	control/V/mA	Ewe/V	dq/mA.h	<I>/mA	P/W	(Q-Qo)/mA.h	x	Capacity/mA.h
1	1	0	1	1	0	1	27255,10	0,100000001	1,21219778	0	0	0	0	0	0
1	1	0	1	0	0	1	27311,10	0,100000001	2,12315869	5,5562904919187226E-005	0,10001323006541653	0,000212343963	0,0015543930469101901	-5,7996494483897933E-005	0,0015543930469101901
1	1	0	1	0	0	1	27367,10	0,100000001	2,51626539	5,5563118489252198E-005	0,10001361449153814	0,000251660793	0,0031101571098918278	-0,00011604414342077227	0,0031101571098918278
1	1	0	1	0	0	1	27423,10	0,100000001	2,55243111	5,5563020736392998E-005	0,10001343853638944	0,000255277409	0,0046659237168671757	-0,00017409188727747238	0,0046659237168671757
1	1	0	1	0	0	1	27479,10	0,100000001	2,57234716	5,5563034069620902E-005	0,10001346253619997	0,000257269334	0,006221689625903177	-0,00023213960509311709	0,006221689625903177
1	1	0	1	0	0	1	27535,10	0,100000001	2,58865428	5,5563031991322835E-005	0,10001345879526339	0,000258900254	0,0077774567383718566	-0,00029018736781045306	0,0077774567383718566
1	1	0	1	0	0	1	27591,10	0,100000001	2,60383463	5,5562970598124794E-005	0,10001334828750557	0,000260418223	0,0093332217531175629	-0,00034823505225892448	0,0093332217531175629
1	1	0	1	0	0	1	27647,10	0,100000001	2,61882424	5,5562987354066637E-005	0,10001337844820126	0,000261917448	0,010888986085823051	-0,00040628271125955834	0,010888986085823051
1	1	0	1	0	0	1	27703,10	0,100000001	2,63434839	5,5563086801519002E-005	0,1000135574536177	0,000263470545	0,012444750329281347	-0,00046433036693025946	0,012444750329281347
1	1	0	1	0	0	1	27759,10	0,100000001	2,65067458	5,5563022451268307E-005	0,10001344162316504	0,000265103095	0,014000515471622387	-0,00052237805613948435	0,014000515471622387
1	1	0	1	0	0	1	27815,10	0,100000001	2,66772628	5,5563045403609677E-005	0,10001348293738	0,000266808609	0,015556280181150099	-0,00058042572919986189	0,015556280181150099
1	1	0	1	0	0	1	27871,10	0,100000001	2,68600011	5,5563096873048275E-005	0,10001357558237059	0,000268636475	0,01711204647722679	-0,00063847346145651533	0,01711204647722679
1	1	0	1	0	0	1	27927,10	0,100000001	2,70555329	5,5563039114077888E-005	0,10001347161622264	0,000270591787	0,018667811524590717	-0,00069652114712201638	0,018667811524590717
1	1	0	1	0	0	1	27983,10	0,100000001	2,72657681	5,5562954944041037E-005	0,10001332011015448	0,000272693986	0,02022357606615047	-0,00075456881391528358	0,02022357606615047
1	1	0	1	0	0	1	28039,10	0,100000001	2,74956703	5,5563041307032109E-005	0,10001347556354029	0,000274993741	0,021779341159763885	-0,0008126165013064151	0,021779341159763885
1	1	0	1	0	0	1	28095,10	0,100000001	2,77458143	5,5562852282904915E-005	0,10001313532010723	0,000277494575	0,023335105091063555	-0,00087066414533005824	0,023335105091063555
1	1	0	1	0	0	1	28151,10	0,100000001	2,80314732	5,5562980064501363E-005	0,10001336532698362	0,000280352193	0,024890868485557581	-0,00092871176932476109	0,024890868485557581
1	1	0	1	0	0	1	28207,10	0,100000001	2,8355515	5,556300772478183E-005	0,10001341511548906	0,000283593195	0,026446631481620211	-0,0009867593784534528	0,026446631481620211
1	1	0	1	0	0	1	28263,10	0,100000001	2,87356925	5,5562974105692576E-005	0,10001335460112765	0,000287395291	0,028002395283063283	-0,0010448070176319715	0,028002395283063283
1	1	0	1	0	0	1	28319,10	0,100000001	2,91863322	5,5562983327855667E-005	0,10001337120102142	0,000291902339	0,029558159526803462	-0,0011028546733131902	0,029558159526803462
1	1	0	1	0	0	1	28375,10	0,100000001	2,97274828	5,5563030747075872E-005	0,10001345655561885	0,000297314837	0,031113924691337709	-0,0011609023633504734	0,031113924691337709
1	1	0	1	0	0	1	28431,10	0,100000001	3,04000044	5,5563072987314726E-005	0,1000135325880497	0,000304041168	0,032669687890020531	-0,001218949980039197	0,032669687890020531
1	1	0	1	0	0	1	28487,10	0,100000001	3,12546945	5,5562978900969024E-005	0,10001336323262538	0,000312588701	0,034225450910725126	-0,0012769975900873134	0,034225450910725126
1	1	0	1	0	0	1	28543,10	0,100000001	3,23814845	5,5563054667992723E-005	0,1000134996132697	0,000323858549	0,035781215966472608	-0,0013350452760656163	0,035781215966472608
1	1	0	1	0	0	1	28599,10	0,100000001	3,38976192	5,556311364471913E-005	0,10001360577137851	0,000339022314	0,037336979371274106	-0,0013930929004449046	0,037336979371274106
1	1	0	1	0	0	1	28655,10	0,100000001	3,59329462	5,5563033839894669E-005	0,10001346212269274	0,000359377824	0,038892743111089722	-0,0014511405373240202	0,038892743111089722
1	1	0	1	0	0	1	28711,10	0,100000001	3,86310554	5,5563057428018912E-005	0,1000135045813169	0,000386362721	0,040448508455547238	-0,0015091882340744826	0,040448508455547238
1	1	0	1	0	0	1	28767,10	0,100000001	4,18792915	5,5563102787981434E-005	0,1000135862292504	0,000418849813	0,042004275028872454	-0,0015672359766756509	0,042004275028872454
1	1	0	1	0	0	1	28823,10	0,100000001	4,45496559	5,5563115881548986E-005	0,1000136097976723	0,000445557176	0,043560040947769728	-0,001625283694859233	0,043560040947769728
1	0	0	0	0	0	2	28876,55	-0,100000001	3,18574619	-5,554478490642375E-005	-0,099980614042047398	0,000318512873	0,042822653541127904	-0,0015977707792895139	0,0011108993749597835
1	0	0	0	0	0	2	28932,55	-0,100000001	2,49651551	-5,5544844292932083E-005	-0,099980720937763686	0,000249603414	0,041267398935980742	-0,0015397421389094176	0,0026661539801069427
1	0	0	0	0	0	2	28988,55	-0,100000001	2,42506242	-5,5544712466498214E-005	-0,099980483650179853	0,000242458918	0,039712145238368122	-0,0014817135323906544	0,0042214076777195757
1	0	0	0	0	0	2	29044,55	-0,100000001	2,40843081	-5,5544718446830906E-005	-0,099980494414778816	0,0002407961	0,038156890779767693	-0,0014236848974784136	0,0057766621363200218
1	0	0	0	0	0	2	29100,55	-0,100000001	2,39536977	-5,5544981194453107E-005	-0,099980967360504525	0,00023949139	0,036601633882343021	-0,0013656561715703608	0,007331919033744681
1	0	0	0	0	0	2	29156,55	-0,100000001	2,38156414	-5,5544778341220486E-005	-0,099980602224681357	0,000238110224	0,035046379240029875	-0,0013076275298035512	0,0088871736760578176
1	0	0	0	0	0	2	29212,55	-0,100000001	2,36590648	-5,5544854787902701E-005	-0,099980739828711014	0,000236545078	0,03349112369513353	-0,001249598854360149	0,010442429220954157
1	0	0	0	0	0	2	29268,55	-0,100000001	2,34770894	-5,5544852501402298E-005	-0,099980735713010253	0,000234725667	0,031935868303086682	-0,001191570184619767	0,011997684613001011
1	0	0	0	0	0	2	29324,55	-0,100000001	2,32727742	-5,5544783809946643E-005	-0,09998061206838857	0,000232682622	0,030380612548679603	-0,0011335415013592376	0,013552940367408093
1	0	0	0	0	0	2	29380,55	-0,100000001	2,30480266	-5,5544880413760742E-005	-0,099980785955256051	0,00023043598	0,028825357763451501	-0,001075512854260079	0,015108195152636205
1	0	0	0	0	0	2	29436,55	-0,100000001	2,280514	-5,5544891381843226E-005	-0,099980805697804762	0,00022800763	0,027270102858785622	-0,0010174842027045362	0,016663450057302086
1	0	0	0	0	0	2	29492,55	-0,100000001	2,25448775	-5,5544999502185318E-005	-0,099981000314422886	0,000225405936	0,025714844232145773	-0,00095945541227714022	0,018218708683941939
1	0	0	0	0	0	2	29548,55	-0,100000001	2,22607446	-5,5544819327692186E-005	-0,099980676000331341	0,000222564428	0,024159586033775226	-0,00090142663782904806	0,019773966882312483
1	0	0	0	0	0	2	29604,55	-0,100000001	2,19494963	-5,5545015822682118E-005	-0,099981029691317478	0,00021945333	0,02260433028206071	-0,00084339795466898176	0,021329222634026998
1	0	0	0	0	0	2	29660,55	-0,100000001	2,16059804	-5,5545004922482701E-005	-0,099981010070958285	0,000216018772	0,021049070199087747	-0,00078536910990383936	0,022884482716999965
1	0	0	0	0	0	2	29716,55	-0,100000001	2,12189269	-5,5545049433492954E-005	-0,099981090190777728	0,000212149142	0,019493808372209123	-0,00072734020007123213	0,024439744543878589
1	0	0	0	0	0	2	29772,55	-0,100000001	2,07784057	-5,5544962382978867E-005	-0,099980933499850458	0,000207744437	0,017938548131748688	-0,00066931134943002035	0,025995004784339024
1	0	0	0	0	0	2	29828,55	-0,100000001	2,02693367	-5,5544951603644422E-005	-0,099980914097048218	0,000202654686	0,016383290132569414	-0,00061128258241402227	0,027550262783518294
1	0	0	0	0	0	2	29884,55	-0,100000001	1,96762478	-5,5545007242510714E-005	-0,099981014247008768	0,000196725116	0,01482802962200391	-0,00055325372169482726	0,029105523294083795
1	0	0	0	0	0	2	29940,55	-0,100000001	1,89726007	-5,5544946904811597E-005	-0,09998090563914903	0,000189689774	0,013272771334270282	-0,00049522494391247821	0,030660781581817421
1	0	0	0	0	0	2	29996,55	-0,100000001	1,8141017	-5,554494004903568E-005	-0,09998089329875223	0,000181375508	0,011717513644067008	-0,00043719618842479002	0,032216039272020691
1	0	0	0	0	0	2	30052,55	-0,100000001	1,71695256	-5,5545001117719539E-005	-0,099981003222384525	0,000171662643	0,010162254880982618	-0,0003791673929064649	0,033771298035105088
1	0	0	0	0	0	2	30108,55	-0,100000001	1,60650766	-5,5545055685771834E-005	-0,099981101444879846	0,000160620402	0,0086069947315372314	-0,00032113854566114707	0,03532655818455049
1	0	0	0	0	0	2	30164,55	-0,100000001	1,48825288	-5,5544896590626899E-005	-0,099980815073615488	0,000148796738	0,0070517360811172032	-0,00026310975434648077	0,03688181683497049
1	0	0	0	0	0	2	30220,55	-0,100000001	1,36818409	-5,5544839916957747E-005	-0,099980713061009792	0,000136792019	0,0054964787565789069	-0,00020508101250224458	0,038437074159508794
1	0	0	0	0	0	2	30276,55	-0,100000001	1,27452362	-5,5544892823530573E-005	-0,099980808292842022	0,000127427906	0,0039412234611433222	-0,00014705234636655869	0,039992329454944365
1	0	0	0	0	0	2	30332,55	-0,100000001	1,23253393	-5,5544736134923168E-005	-0,09998052625334528	0,000123229387	0,0023859714034332813	-8,9023801034766029E-005	0,041547581512654406
1	0	0	0	0	0	2	30388,55	-0,100000001	1,20946729	-5,5544832963082522E-005	-0,099980700544034227	0,000120923389	0,0008307168602869559	-3,0995162968003885E-005	0,043102836055800749
1	0	0	0	0	0	2	30417,19	-0,100000001	1,20011079	-1,7818756779448854E-005	-0,099980556701623872	0,000119987744	3,5271511317191853E-005	-1,3160275102957619E-006	0,043898281404770522