Folder: thesis/Experimentelles/Rohdaten/Batteriemessungen/AlteZelle/Batterietest Li vs LATP/ZView-Export

Note: README.md
# thesis

Zusammenfassung
---------------
Es konnten die Festkörperelektrolytkeramiken LATP, LAGP, LTO und LLTO hergestellt,
mit XRD und MAS-NMR charakterisiert und zu Elektrodensuspensionen weiterverarbeitet
werden. Aus den Daten der MAS-NMR konnten dabei gegenüber der XRD keine Mehrinfor-
mationen gewonnen werden. Die mit den Suspensionen gegossenen und gestanzten Elektro-
denproben wurden mittels REM und EDX untersucht und als Kathode in Testzellen verbaut.
Mit diesen wurden Ladekennlinien erstellt und eine zyklischer Voltametrie durchgeführt. Aus
den Ladekennlinien konnten die Kapazitäten und der Grad der Lithiuminsertation in die
Materialen bestimmt werden. Die zyklische Voltametrie lieferte nicht-reaktive Spannungsbe-
reiche der Materialien.

Für ein noch besseres Verständnis der Lithiumbewegung und -insertation wurde eine in-situ
NMR-Testzelle konzipiert, konstruiert, gebaut und getestet. Für den Test kam dabei eine
Lithium-Schwefel-Zelle zum Einsatz, für welche ein Di?usionskoe?zient sowie ein Spektrum
vor und nach einer 90 minütigen Ladezeit aufgenommen worden ist.

Abstract
--------
The all solid state electrolyte ceramics LATP, LAGP, LTO, and LLTO were successfully
synthesized and characterized by using XRD. MAS-NMR spectroscopy were not able to ge-
nerate additional information. All powders were processed to electrode slurries, casted on
aluminum foils and punched to electrode samples. Those samples were studied by SEM and
EDX and then build into battery test cells. The cells were analyzed by measuring the charge
curves as well as cyclic voltammetry. With the charge curves capacities and the amount of
lithium insertion were calculated. The cyclic voltammetry was able to detect non-reactive
voltage regions.

To be able to better understand lithium movement and insertion a novel in-situ NMR sample
cell was designed, constructed, built and tested. Therefore, a lithium-sulfur-cell was built into
the in-situ sample cell. With this setting a diffusion coeffcient as well as a NMR spectrum
before and after 90 minutes of charging were measured.

File: LATP vs Li Batterietest Probe1_02_GCPL_C01_loop0.txt
EC-Lab ASCII FILE
Nb header lines : 3
mode	ox/red	error	control changes	Ns changes	counter inc.	Ns	time/s	control/V/mA	Ewe/V	dq/mA.h	<I>/mA	P/W	(Q-Qo)/mA.h	x	Capacity/mA.h
1	1	0	1	1	0	1	1800,00	0,100000001	2,48391867	0	0	0	0	0	0
1	1	0	1	0	0	1	1846,00	0,100000001	2,66329622	5,5563019562098714E-005	0,10001343773832963	0,000266365416	0,001276575616927457	-4,7630752641734874E-005	0,001276575616927457
1	1	0	1	0	0	1	1892,00	0,100000001	2,69760966	5,5562803901731968E-005	0,10001304954965968	0,000269796175	0,0025545229300478397	-9,5312685112692954E-005	0,0025545229300478397
1	1	0	1	0	0	1	1938,00	0,100000001	2,73373723	5,5562874571730688E-005	0,10001317675566059	0,000273409736	0,0038324687821755942	-0,00014299456307205173	0,0038324687821755942
1	1	0	1	0	0	1	1984,00	0,100000001	2,77341652	5,5562922111815872E-005	0,1000132623278161	0,000277378422	0,0051104135795180326	-0,00019067640167595222	0,0051104135795180326
1	1	0	1	0	0	1	2030,00	0,100000001	2,81861424	5,5562900069273184E-005	0,10001322265123824	0,000281898683	0,0063883587793876045	-0,00023835825529868128	0,0063883587793876045
1	1	0	1	0	0	1	2076,00	0,100000001	2,87292004	5,5562891072697107E-005	0,1000132064574009	0,000287329953	0,007666304712527177	-0,00028604013628069987	0,007666304712527177
1	1	0	1	0	0	1	2122,00	0,100000001	2,93923664	5,5562856638597114E-005	0,10001314447601936	0,000293962308	0,0089442508869496627	-0,00033372202626530842	0,0089442508869496627
1	1	0	1	0	0	1	2168,00	0,100000001	3,021173	5,5562814308123456E-005	0,10001306828116483	0,000302156783	0,010222195682238635	-0,0003814038647925913	0,010222195682238635
1	1	0	1	0	0	1	2214,00	0,100000001	3,12401819	5,5562844883236621E-005	0,10001312331636992	0,000312442804	0,0115001397968674	-0,00042908567792352672	0,0115001397968674
1	1	0	1	0	0	1	2260,00	0,100000001	3,25428367	5,5562704650064314E-005	0,10001287089665339	0,000325470261	0,012778084331099203	-0,00047676750671041562	0,012778084331099203
1	1	0	1	0	0	1	2306,00	0,100000001	3,41796517	5,556257341926297E-005	0,10001263468120502	0,00034183971	0,01405602588957615	-0,00052444922446788998	0,01405602588957615
1	1	0	1	0	0	1	2352,00	0,100000001	3,61620855	5,5562728906671206E-005	0,1000129145585469	0,000361667568	0,015333967392543798	-0,0005721309401542377	0,015333967392543798
1	1	0	1	0	0	1	2398,00	0,100000001	3,84282684	5,556264405490624E-005	0,10001276182536611	0,000384331739	0,016611909604408522	-0,00061981268229048845	0,016611909604408522
1	1	0	1	0	0	1	2444,00	0,100000001	4,07517385	5,5562747435851232E-005	0,10001294791107179	0,000407570158	0,017889851623989907	-0,00066749441725238925	0,017889851623989907
1	1	0	1	0	0	1	2490,00	0,100000001	4,24736595	5,5562653324256339E-005	0,1000127785101967	0,000424790866	0,019167793877434243	-0,0007151761609400311	0,019167793877434243
1	1	0	1	0	0	1	2536,00	0,100000001	4,36934423	5,5562710129966342E-005	0,10001288076047728	0,000436990696	0,020445735910377818	-0,00076285789640049331	0,020445735910377818
1	1	0	1	0	0	1	2582,00	0,100000001	4,46029329	5,5562820399387014E-005	0,10001307924543952	0,000446087681	0,021723680574946765	-0,00081053973005043635	0,021723680574946765
1	0	0	0	0	0	2	2625,62	-0,100000001	3,8162601	-5,5545465394440627E-005	-0,099981840235746854	0,000381556718	0,021824296564001834	-0,00081429384788171699	0,00055545799300985203
1	0	0	0	0	0	2	2671,62	-0,100000001	2,74482584	-5,5545335833397171E-005	-0,099981607025862746	0,000274432095	0,020546752227266867	-0,00076662695100150618	0,0018330023297448125
1	0	0	0	0	0	2	2717,62	-0,100000001	2,49540806	-5,5545206358449331E-005	-0,099981373970950733	0,000249494333	0,019269210318854112	-0,00071896014472526221	0,0031105442381575693
1	0	0	0	0	0	2	2763,62	-0,100000001	2,4308672	-5,5545260556870035E-005	-0,09998147152811049	0,000243041679	0,017991669793434269	-0,00067129339005034317	0,0043880847635774144
1	0	0	0	0	0	2	2809,62	-0,100000001	2,40772438	-5,5545239141417875E-005	-0,099981432980295616	0,000240727735	0,016714128623491597	-0,00062362661132741069	0,0056656259335200819
1	0	0	0	0	0	2	2855,62	-0,100000001	2,39533162	-5,5545318885395923E-005	-0,099981576519459725	0,000239489033	0,01543658822286856	-0,00057595986130882829	0,0069431663341431142
1	0	0	0	0	0	2	2901,62	-0,100000001	2,38400841	-5,5545250060657658E-005	-0,099981452634927718	0,000238356617	0,014159047269334216	-0,00052829309066038163	0,0082207072876774605
1	0	0	0	0	0	2	2947,62	-0,100000001	2,37199759	-5,5545287099563411E-005	-0,09998151930495977	0,000237155924	0,012881504431079894	-0,00048062624969049856	0,0094982501259317798
1	0	0	0	0	0	2	2993,62	-0,100000001	2,35939503	-5,5545438826911981E-005	-0,099981792414194086	0,000235896543	0,011603961661812157	-0,00043295941129459763	0,01077579289519952
1	0	0	0	0	0	2	3039,62	-0,100000001	2,34536028	-5,5545329495850534E-005	-0,099981595618278515	0,000234492865	0,010326417579521146	-0,00038529252390803302	0,012053336977490531
1	0	0	0	0	0	2	3085,62	-0,100000001	2,3303709	-5,5545486944003238E-005	-0,099981879024960525	0,000232994862	0,0090488722118837005	-0,00033762558856346483	0,013330882345127974
1	0	0	0	0	0	2	3131,62	-0,100000001	2,31404471	-5,5545281031893357E-005	-0,099981508383153395	0,000231361686	0,0077713280263582694	-0,00028995869732508518	0,014608426530653408
1	0	0	0	0	0	2	3177,62	-0,100000001	2,29672551	-5,5545237193918886E-005	-0,09998142947479735	0,000229629906	0,0064937871431677542	-0,00024229192930126131	0,015885967413843923
1	0	0	0	0	0	2	3223,62	-0,100000001	2,27833724	-5,5545156575739386E-005	-0,099981284362070579	0,000227791083	0,0052162470412430502	-0,0001946251904275153	0,017163507515768624
1	0	0	0	0	0	2	3269,62	-0,100000001	2,2589941	-5,5545214197287955E-005	-0,099981388080860634	0,000225857366	0,003938706315374441	-0,00014695842827358326	0,018441048241637232
1	0	0	0	0	0	2	3315,62	-0,100000001	2,2384479	-5,554528271489673E-005	-0,099981511412559539	0,000223803407	0,0026611643194637194	-9,9291618732672422E-005	0,019718590237547952
1	0	0	0	0	0	2	3361,62	-0,100000001	2,21662235	-5,5545254181656576E-005	-0,099981460052725965	0,000221621143	0,0013836231584298774	-5,1624840342140467E-005	0,020996131398581789
1	0	0	0	0	0	2	3407,62	-0,100000001	2,19305944	-5,55452155429456E-005	-0,099981390503044442	0,00021926513	0,00010608336434163958	-3,9581129541868768E-006	0,022273671192670029
1	0	0	0	0	0	2	3453,62	-0,100000001	2,16777778	-5,5545314815723232E-005	-0,099981569194048691	0,000216737826	-0,0011714571781656978	4,3708642358289574E-005	0,023551211735177366
1	0	0	0	0	0	2	3499,62	-0,100000001	2,14052916	-5,5545072552644544E-005	-0,099981133120496051	0,000214012529	-0,0024489969067012432	9,1375367300384077E-005	0,024828751463712922
1	0	0	0	0	0	2	3545,62	-0,100000001	2,11068392	-5,5545243715246515E-005	-0,099981441213187392	0,000211029226	-0,0037265365074684384	0,00013904208747526965	0,026106291064480131
1	0	0	0	0	0	2	3591,62	-0,100000001	2,07801247	-5,554534310557776E-005	-0,099981620115788134	0,000207763049	-0,005004078162779593	0,00018670888430795267	0,027383832719791286
1	0	0	0	0	0	2	3637,62	-0,100000001	2,04178953	-5,5545458287828499E-005	-0,099981827443844723	0,000204141848	-0,0062816224861593882	0,00023437578068986397	0,028661377043171075
1	0	0	0	0	0	2	3683,62	-0,100000001	2,00144196	-5,5545400428275264E-005	-0,099981723296646259	0,000200107621	-0,0075591668375161152	0,00028204267811563216	0,029938921394527802
1	0	0	0	0	0	2	3729,62	-0,100000001	1,95639694	-5,5545189285857811E-005	-0,099981343240285235	0,000195603192	-0,0088367082808541107	0,00032970946703931168	0,031216462837865798
1	0	0	0	0	0	2	3775,62	-0,100000001	1,90550911	-5,5545248172763322E-005	-0,099981449236717824	0,000190515566	-0,010114250016042117	0,00037737626685230746	0,032494004573053792
1	0	0	0	0	0	2	3821,62	-0,100000001	1,84889269	-5,5545185815956858E-005	-0,09998133699446336	0,000184854769	-0,011391789595722933	0,00042504298624043181	0,033771544152734618
1	0	0	0	0	0	2	3867,62	-0,100000001	1,78705001	-5,5545118049614963E-005	-0,099981215015044864	0,000178671427	-0,012669328404989286	0,0004727096768833568	0,035049082962000973
1	0	0	0	0	0	2	3913,62	-0,100000001	1,71983588	-5,5545310130549798E-005	-0,099981560760736307	0,000171951877	-0,013946868847054515	0,00052037642844820326	0,036326623404066214
1	0	0	0	0	0	2	3959,62	-0,100000001	1,64320803	-5,5545295828332506E-005	-0,099981535016744525	0,000164290468	-0,015224410788862848	0,00056804323597048109	0,037604165345874541
1	0	0	0	0	0	2	4005,62	-0,100000001	1,56383049	-5,5545281764533786E-005	-0,099981509701906202	0,00015635413	-0,016501952460906765	0,00061571003342748608	0,038881707017918458
1	0	0	0	0	0	2	4051,62	-0,100000001	1,490888	-5,5545319121744896E-005	-0,099981576944887898	0,000149061336	-0,017779493705626778	0,00066337681494046144	0,04015924826263847
1	0	0	0	0	0	2	4097,62	-0,100000001	1,40969646	-5,5545409223271744E-005	-0,099981738064089536	0,000140943899	-0,019057038248592157	0,00071104371951540621	0,041436792805603821
1	0	0	0	0	0	2	4143,62	-0,100000001	1,33904529	-5,554559316030807E-005	-0,099982068899056781	0,000133880516	-0,020334584297703155	0,00075871068028666906	0,042714338854714816
1	0	0	0	0	0	2	4189,62	-0,100000001	1,28932214	-5,5545442895342912E-005	-0,099981798422116211	0,000128908752	-0,021612130162837805	0,00080637763419352678	0,043991884719849459
1	0	0	0	0	0	2	4235,62	-0,100000001	1,25762463	-5,5545465215212774E-005	-0,099981838597882458	0,000125739622	-0,022889675889440086	0,00085404458293155571	0,045269430446451744
1	0	0	0	0	0	2	4281,62	-0,100000001	1,23637199	-5,5545577868405312E-005	-0,099982041373631475	0,000123614998	-0,024167222419015859	0,00090171156162960512	0,046546976976027507
1	0	0	0	0	0	2	4327,62	-0,100000001	1,21945393	-5,5545566286477779E-005	-0,099982020526161677	0,000121923469	-0,025444771009943766	0,00094937861723947418	0,047824525566955392
1	0	0	0	0	0	2	4373,62	-0,100000001	1,20484626	-5,5545455822514163E-005	-0,099981821691024755	0,000120462726	-0,026722318553884634	0,00099704563378484928	0,049102073110896256
1	0	0	0	0	0	2	4390,00	-0,100000001	1,19999623	-1,0770264046887557E-005	-0,099981823205409702	0,000119977813	-0,027177452406353642	0,001014027289754441	0,049557206963365261

File: LATP vs Li Batterietest Probe1_02_GCPL_C01_loop6.txt
EC-Lab ASCII FILE
Nb header lines : 3
mode	ox/red	error	control changes	Ns changes	counter inc.	Ns	time/s	control/V/mA	Ewe/V	dq/mA.h	<I>/mA	P/W	(Q-Qo)/mA.h	x	Capacity/mA.h
1	1	0	1	1	0	1	20871,75	0,100000001	1,21261787	0	0	0	0	0	0
1	1	0	1	0	0	1	20927,75	0,100000001	2,10414004	5,5562880323992832E-005	0,1000131857940661	0,000210441751	0,0015543906523434774	-5,7996405139394355E-005	0,0015543906523434774
1	1	0	1	0	0	1	20983,75	0,100000001	2,5146997	5,556288907594151E-005	0,1000132015475739	0,000251503167	0,0031101509530004653	-0,00011604391369887752	0,0031101509530004653
1	1	0	1	0	0	1	21039,75	0,100000001	2,55203032	5,5562938421964646E-005	0,10001329037041661	0,000255236955	0,004665911271184944	-0,00017409142291233494	0,004665911271184944
1	1	0	1	0	0	1	21095,75	0,100000001	2,57215619	5,5562801523341075E-005	0,1000130439528912	0,000257249165	0,0062216687071106624	-0,00023213882458484278	0,0062216687071106624
1	1	0	1	0	0	1	21151,75	0,100000001	2,58844423	5,5562809917247962E-005	0,10001305906192379	0,000258878223	0,0077774272233697408	-0,00029018626656604077	0,0077774272233697408
1	1	0	1	0	0	1	21207,75	0,100000001	2,60354829	5,5562895236743821E-005	0,10001321263701819	0,000260389235	0,0093331868225644992	-0,00034823374895302509	0,0093331868225644992
1	1	0	1	0	0	1	21263,75	0,100000001	2,61853766	5,556298740911815E-005	0,10001337854729398	0,00026188881	0,010888947392054584	-0,00040628126754303251	0,010888947392054584
1	1	0	1	0	0	1	21319,75	0,100000001	2,63381362	5,5562980519814624E-005	0,10001336614654749	0,000263416558	0,012444709592110029	-0,00046432884697162586	0,012444709592110029
1	1	0	1	0	0	1	21375,75	0,100000001	2,64977694	5,5562903830988544E-005	0,10001322810665888	0,000265012757	0,014000469931783227	-0,00052237635698685626	0,014000469931783227
1	1	0	1	0	0	1	21431,75	0,100000001	2,66677141	5,5562823836174272E-005	0,10001308411599146	0,000266712043	0,015556229385769069	-0,00058042383395590054	0,015556229385769069
1	1	0	1	0	0	1	21487,75	0,100000001	2,68473983	5,5562942962679603E-005	0,10001329854370365	0,000268509699	0,017111991770818278	-0,00063847142028686003	0,017111991770818278
1	1	0	1	0	0	1	21543,75	0,100000001	2,70387292	5,5562855076458714E-005	0,10001314034850413	0,00027042281	0,018667753893760618	-0,00069651899683825971	0,018667753893760618
1	1	0	1	0	0	1	21599,75	0,100000001	2,72459078	5,5562950453410541E-005	0,1000133120270195	0,000272495352	0,020223513504041837	-0,00075456647963889498	0,020223513504041837
1	1	0	1	0	0	1	21655,75	0,100000001	2,74716115	5,5562737465732627E-005	0,10001292864919459	0,000274751626	0,021779270925203824	-0,00081261388076054797	0,021779270925203824
1	1	0	1	0	0	1	21711,75	0,100000001	2,771698	5,5562736911492218E-005	0,10001292765156184	0,000277205632	0,023335027335520691	-0,00087066124416621069	0,023335027335520691
1	1	0	1	0	0	1	21767,75	0,100000001	2,79923296	5,5562736356423962E-005	0,10001292665243899	0,000279959495	0,024890782679953776	-0,00092870856780231629	0,024890782679953776
1	1	0	1	0	0	1	21823,75	0,100000001	2,83098769	5,5562935991005766E-005	0,10001328599469058	0,000283136382	0,026446541460953917	-0,00098675601966135923	0,026446541460953917
1	1	0	1	0	0	1	21879,75	0,100000001	2,86772633	5,5563060645841888E-005	0,10001351037339832	0,000286811381	0,028002304038469434	-0,0010448036131734954	0,028002304038469434
1	1	0	1	0	0	1	21935,75	0,100000001	2,9109571	5,5562981933355334E-005	0,1000133686909208	0,000291134638	0,029558067599061325	-0,0011028512433655328	0,029558067599061325
1	1	0	1	0	0	1	21991,75	0,100000001	2,96299076	5,5562915172013971E-005	0,10001324852050488	0,000296338345	0,031113830360696	-0,0011608988437474022	0,031113830360696
1	1	0	1	0	0	1	22047,75	0,100000001	3,02663422	5,556303591074215E-005	0,10001346585021826	0,000302704168	0,03266959283747385	-0,001218946433500881	0,03266959283747385
1	1	0	1	0	0	1	22103,75	0,100000001	3,10732913	5,5562964501480262E-005	0,1000133373135453	0,000310774369	0,034225358362526387	-0,0012769941369895862	0,034225358362526387
1	1	0	1	0	0	1	22159,75	0,100000001	3,21252298	5,5562973188857242E-005	0,10001335295082406	0,0003212952	0,035781123889095104	-0,0013350418405348621	0,035781123889095104
1	1	0	1	0	0	1	22215,75	0,100000001	3,35302329	5,5562982929249606E-005	0,10001337048353051	0,000335347169	0,03733688702364167	-0,0013930894548305757	0,03733688702364167
1	1	0	1	0	0	1	22271,75	0,100000001	3,54141378	5,5563004064063232E-005	0,1000134085261955	0,000354188873	0,038892650186545165	-0,0014511370701843245	0,038892650186545165
1	1	0	1	0	0	1	22327,75	0,100000001	3,79060221	5,5563029040065075E-005	0,10001345348299936	0,00037911121	0,040448413152140307	-0,0015091846781762333	0,040448413152140307
1	1	0	1	0	0	1	22383,75	0,100000001	4,09978724	5,5562917624910675E-005	0,10001325293571901	0,00041003307	0,042004173416710406	-0,0015672321853892659	0,042004173416710406
1	1	0	1	0	0	1	22439,75	0,100000001	4,3838563	5,5562816257278125E-005	0,10001307047397821	0,000438442919	0,043559932121208422	-0,0016252796343939117	0,043559932121208422
1	0	0	0	0	0	2	22492,63	-0,100000001	3,77587438	-5,5545258700019782E-005	-0,099981466870530586	0,000377517455	0,043917930425360653	-0,0016386370324556704	0,00055545542528935597
1	0	0	0	0	0	2	22548,63	-0,100000001	2,56040716	-5,5545252431597978E-005	-0,099981455587371187	0,000255993247	0,042362662867611328	-0,0015806079087965722	0,0021107229830386733
1	0	0	0	0	0	2	22604,63	-0,100000001	2,44041467	-5,5545293389923046E-005	-0,099981529312357197	0,000243996386	0,040807396577563405	-0,0015225788324371178	0,0036659892730866035
1	0	0	0	0	0	2	22660,63	-0,100000001	2,41362453	-5,5545198256770771E-005	-0,09998135807268105	0,000241317452	0,039252131903296806	-0,0014645498163646368	0,0052212539473531987
1	0	0	0	0	0	2	22716,63	-0,100000001	2,40025806	-5,5545231639511059E-005	-0,099981418161614285	0,000239981207	0,037696868496095834	-0,0014065208475680778	0,0067765173545541875
1	0	0	0	0	0	2	22772,63	-0,100000001	2,38702536	-5,5545146656119155E-005	-0,099981265191507008	0,000238657813	0,036141604272472211	-0,0013484918483096925	0,008331781578177792
1	0	0	0	0	0	2	22828,63	-0,100000001	2,37224603	-5,5545196151153914E-005	-0,099981354282570624	0,000237180371	0,034586338860093562	-0,0012904628046972579	0,0098870469905564301
1	0	0	0	0	0	2	22884,63	-0,100000001	2,35544252	-5,5545298711707194E-005	-0,099981538891568781	0,000235500775	0,033031074767752499	-0,0012324338103372014	0,011442311082897494
1	0	0	0	0	0	2	22940,63	-0,100000001	2,33615661	-5,5545237373974586E-005	-0,099981428483648755	0,000233572267	0,03147581016945079	-0,0011744047970990728	0,012997575681199211
1	0	0	0	0	0	2	22996,63	-0,100000001	2,3147893	-5,5545061402850682E-005	-0,099981111735621888	0,000231435202	0,029920545384246701	-0,0011163757768873648	0,01455284046640329
1	0	0	0	0	0	2	23052,63	-0,100000001	2,29158902	-5,554516499365369E-005	-0,099981298199069568	0,000229116049	0,028365282544190944	-0,0010583468292517565	0,016108103306459046
1	0	0	0	0	0	2	23108,63	-0,100000001	2,26657462	-5,5545116520176333E-005	-0,099981210946809254	0,00022661488	0,026810020124418707	-0,0010003178972974912	0,017663365726231283
1	0	0	0	0	0	2	23164,63	-0,100000001	2,23955536	-5,554515245763792E-005	-0,099981275634240909	0,000223913608	0,025254757888094662	-0,00094228897218792474	0,019218627962555328
1	0	0	0	0	0	2	23220,63	-0,100000001	2,21020651	-5,5545116013536851E-005	-0,099981210034858189	0,000220979127	0,023699494847639814	-0,00088426001707515699	0,020773891003010179
1	0	0	0	0	0	2	23276,63	-0,100000001	2,17799354	-5,5545239512291219E-005	-0,099981432332618739	0,000217758919	0,022144229804474698	-0,00082623098723857626	0,022329156046175296
1	0	0	0	0	0	2	23332,63	-0,100000001	2,14190412	-5,5545034662716922E-005	-0,099981063603380544	0,000214149855	0,02058896675842239	-0,00076820203191695974	0,0238844190922276
1	0	0	0	0	0	2	23388,63	-0,100000001	2,10121274	-5,5545009692509971E-005	-0,099981018657007475	0,000210081387	0,019033706860443206	-0,00071017319405418394	0,025439678990206784
1	0	0	0	0	0	2	23444,63	-0,100000001	2,05467844	-5,5545151260991891E-005	-0,099981273480278016	0,000205429373	0,017478445115545821	-0,00065214428728040678	0,02699494073510417
1	0	0	0	0	0	2	23500,63	-0,100000001	2,00060177	-5,5545105406807526E-005	-0,099981190942745165	0,00020002255	0,015923180842931331	-0,00059411528619410611	0,028550205007718662
1	0	0	0	0	0	2	23556,63	-0,100000001	1,93711114	-5,5544950302690266E-005	-0,099980911755330726	0,000193674132	0,014367921412923528	-0,00053608646579197171	0,030105464437726464
1	0	0	0	0	0	2	23612,63	-0,100000001	1,8620491	-5,5544925560553869E-005	-0,099980867219484659	0,000186169287	0,01281266396001007	-0,00047805771915788563	0,03166072189063991
1	0	0	0	0	0	2	23668,63	-0,100000001	1,7742182	-5,5544968360000186E-005	-0,099980944258488986	0,000177388007	0,011257405485007754	-0,00042002893438829005	0,033215980365642234
1	0	0	0	0	0	2	23724,63	-0,100000001	1,67188859	-5,5545012133816877E-005	-0,099981023051359962	0,000167157137	0,009702146210531648	-0,00036200011978925242	0,034771239640118349
1	0	0	0	0	0	2	23780,63	-0,100000001	1,55888498	-5,554515836098128E-005	-0,099981286260259085	0,000155859321	0,0081468849629087654	-0,00030397123156945568	0,036326500887741242
1	0	0	0	0	0	2	23836,63	-0,100000001	1,4409548	-5,5545095562520954E-005	-0,09998117322302912	0,000144068355	0,0065916215718780186	-0,00024594226337622966	0,037881764278772
1	0	0	0	0	0	2	23892,63	-0,100000001	1,32808483	-5,5545165554102925E-005	-0,099981299207878182	0,000132783651	0,0050363568235274048	-0,0001879132445395745	0,039437029027122598
1	0	0	0	0	0	2	23948,63	-0,100000001	1,25691807	-5,5545128285470938E-005	-0,099981232124339802	0,000125668215	0,0034810916730043853	-0,0001298842106973261	0,040992294177645613
1	0	0	0	0	0	2	24004,63	-0,100000001	1,22501051	-5,5544963762991962E-005	-0,099980935983874061	0,000122477693	0,0019258283277189632	-7,1855244210919667E-005	0,042547557522931027
1	0	0	0	0	0	2	24060,63	-0,100000001	1,20413983	-5,554497630438871E-005	-0,09998095855838848	0,000120391058	0,00037056537541400064	-1,3826292387142538E-005	0,044102820475236
1	0	0	0	0	0	2	24073,84	-0,100000001	1,20007253	-3,3665822821358842E-005	-0,099980996225043597	0,000119984448	3,6292268491519802E-006	-1,3541133328925546E-007	0,044469756623800851