Folder: thesis/Experimentelles/Ausgewaehlte_Daten/LTO/CV

Note: README.md
# thesis

Zusammenfassung
---------------
Es konnten die Festkörperelektrolytkeramiken LATP, LAGP, LTO und LLTO hergestellt,
mit XRD und MAS-NMR charakterisiert und zu Elektrodensuspensionen weiterverarbeitet
werden. Aus den Daten der MAS-NMR konnten dabei gegenüber der XRD keine Mehrinfor-
mationen gewonnen werden. Die mit den Suspensionen gegossenen und gestanzten Elektro-
denproben wurden mittels REM und EDX untersucht und als Kathode in Testzellen verbaut.
Mit diesen wurden Ladekennlinien erstellt und eine zyklischer Voltametrie durchgeführt. Aus
den Ladekennlinien konnten die Kapazitäten und der Grad der Lithiuminsertation in die
Materialen bestimmt werden. Die zyklische Voltametrie lieferte nicht-reaktive Spannungsbe-
reiche der Materialien.

Für ein noch besseres Verständnis der Lithiumbewegung und -insertation wurde eine in-situ
NMR-Testzelle konzipiert, konstruiert, gebaut und getestet. Für den Test kam dabei eine
Lithium-Schwefel-Zelle zum Einsatz, für welche ein Di?usionskoe?zient sowie ein Spektrum
vor und nach einer 90 minütigen Ladezeit aufgenommen worden ist.

Abstract
--------
The all solid state electrolyte ceramics LATP, LAGP, LTO, and LLTO were successfully
synthesized and characterized by using XRD. MAS-NMR spectroscopy were not able to ge-
nerate additional information. All powders were processed to electrode slurries, casted on
aluminum foils and punched to electrode samples. Those samples were studied by SEM and
EDX and then build into battery test cells. The cells were analyzed by measuring the charge
curves as well as cyclic voltammetry. With the charge curves capacities and the amount of
lithium insertion were calculated. The cyclic voltammetry was able to detect non-reactive
voltage regions.

To be able to better understand lithium movement and insertion a novel in-situ NMR sample
cell was designed, constructed, built and tested. Therefore, a lithium-sulfur-cell was built into
the in-situ sample cell. With this setting a diffusion coeffcient as well as a NMR spectrum
before and after 90 minutes of charging were measured.

File: LTO_Korrosion_02_CV_C02.mpt
EC-Lab ASCII FILE
Nb header lines : 61

Cyclic Voltammetry

Run on channel : 2 (SN 6986)
Grouped channel(s) : 2
User :
CE vs. WE compliance from -10 V to 10 V
Electrode connection : standard
Ewe ctrl range : min = 0,00 V, max = 5,00 V
Acquisition started on : 09.04.2015 14:14:19
Saved on :
	File : LTO_Korrosion_02_CV_C02.mpr
	Directory : C:\Gielisch\AlteZelle\150904_LTO_Korrosion\
	Host : 192.168.0.2
Device : VMP3 (SN 0324)
Address : 192.168.0.1
EC-Lab for windows v10.33 (software)
Internet server v10.33 (firmware)
Command interpretor v10.32 (firmware)
Electrode material :
Initial state :
Electrolyte :
Comments :
Electrode surface area : 0,001 cm²
Characteristic mass : 0,001 g
Equivalent Weight : 0,000 g/eq.
Density : 0,000 g/cm3
Ei (V)              0,000
vs.                 Eoc
dE/dt               10,000
dE/dt unit          mV/s
E1 (V)              4,000
vs.                 Ref
Step percent        50
N                   10
E range min (V)     0,000
E range max (V)     5,000
I Range             Auto
Bandwidth           5
E2 (V)              0,600
vs.                 Ref
nc cycles           0
Reverse Scan        1
Ef (V)              0,000
vs.                 Eoc

Modify on : 09.04.2015 14:31
E2 (V)              1,000

Number of loops : 7
Loop 0 from point number 0 to 6797
Loop 1 from point number 6798 to 12795
Loop 2 from point number 12796 to 18793
Loop 3 from point number 18794 to 24791
Loop 4 from point number 24792 to 30789
Loop 5 from point number 30790 to 36788
Loop 6 from point number 36789 to 42787

mode	ox/red	error	control changes	counter inc.	time/s	control/V	Ewe/V	<I>/mA	cycle number	(Q-Qo)/C	P/W
2	1	1	1	0	0,0508	3,143641	3,14429379	0,00012875051470473408	1	0	4,0482945E-007
2	1	0	0	0	39,8540	3,54167199	3,54218292	0,039478604220440474	1	0,00131798035	0,000139840442
2	1	0	1	0	79,6622	3,93975353	3,94035792	0,067209860024205043	1	0,00334387133	0,000264830916
2	0	0	0	0	119,4308	3,66259623	3,66311812	-0,032742329704989139	1	0,00293609151	0,000119939024
2	0	0	1	0	159,2390	3,26451468	3,26489401	-0,034884195667001683	1	0,00161305466	0,000113893198
2	0	0	0	0	199,0472	2,86643267	2,86692381	-0,051445575896650778	1	-6,10632342E-005	0,000147490544
2	0	0	1	0	238,8554	2,46835113	2,46885133	-0,073669046292909491	1	-0,00251525827	0,000181877927
2	0	0	0	0	278,7036	2,06986952	2,07045364	-0,12970648954312059	1	-0,00639014551	0,000268551288
2	0	0	1	0	318,5118	1,67178762	1,6724031	-0,3441376415667712	1	-0,0152544975	0,000575536862
2	0	0	0	0	358,3500	1,27340591	1,27386296	-1,767334764202431	1	-0,0470662005	0,0022513424
2	0	0	0	0	398,1581	0,875324488	0,875777364	-9,643088092867401	1	-0,258262366	0,00844519865
2	1	0	0	1	437,8868	0,721992791	0,722548068	-1,8258014343402992	1	-0,50167948	0,00131922925
2	1	0	1	1	477,8450	1,12157476	1,12202263	1,517241369105048	1	-0,491657585	0,0017023792
2	1	0	0	1	517,6532	1,51965654	1,5202024	0,75187068542948582	1	-0,437875897	0,00114299566
2	1	0	1	1	557,4614	1,9177382	1,91823053	6,4503429763846899	1	-0,329756349	0,0123732444
2	1	0	0	1	597,3496	2,31662011	2,31709981	0,55354617729231046	1	-0,0502502732	0,00128262176
2	1	0	1	1	637,1978	2,71510172	2,71555114	0,1266394889810023	1	-0,0418572612	0,000343896012
2	1	0	0	1	677,0060	3,11318374	3,11369538	0,10481682955942762	1	-0,0373504609	0,000326367677
2	1	0	1	0	716,7890	3,51046538	3,51083016	0,11176320582766186	2	0,00395793375	0,000392381626
2	1	0	0	0	756,5972	3,90854692	3,90867162	0,13347662949106747	2	0,00880893134	0,000521716313
2	0	0	0	0	796,4260	3,6932025	3,69341516	-0,026005223876348237	2	0,00995492097	9,60480902E-005
2	0	0	1	0	836,2342	3,29512095	3,2952714	-0,034522366520293222	2	0,0086887693	0,000113760565
2	0	0	0	0	876,0424	2,89703941	2,89737654	-0,041669852208104653	2	0,00718449475	0,000120733253
2	0	0	1	0	915,8506	2,4989574	2,49922824	-0,051382464529187821	2	0,00532516139	0,000128416505
2	0	0	0	0	955,6588	2,10087562	2,10122204	-0,091054681015925619	2	0,00276082149	0,000191326108
2	0	0	1	0	995,5070	1,70239389	1,70264208	-0,32399478130456403	2	-0,00466384878	0,000551647157
2	0	0	0	0	1035,3552	1,30391216	1,30424881	-5,8073848557693069	2	-0,0875130817	0,00757427467
2	1	0	1	1	1075,0038	1,09256887	1,09279764	-2,750942920093184	2	-0,366196305	0,00300622382
2	1	0	0	1	1115,0120	1,49265099	1,49296653	0,27532934425053802	2	-0,386054665	0,000411057496
2	1	0	1	1	1154,8502	1,8910327	1,89126182	5,9717998581904077	2	-0,293707937	0,0112942373
2	1	0	0	1	1194,7684	2,29021454	2,29075861	0,45777473315872582	2	-0,00965887774	0,00104865141
2	1	0	1	1	1234,5766	2,68829632	2,68860912	0,081097751114241395	2	-0,00372426142	0,00021804015
2	1	0	0	1	1274,3848	3,0863781	3,08666396	0,079653645434451418	2	-0,000510073674	0,000245864037
2	1	0	0	0	1314,0957	3,48295903	3,4832716	0,081578685079090163	3	0,00272880611	0,00028416072
2	1	0	1	0	1353,9038	3,88104057	3,88115358	0,099411160065365018	3	0,00627960265	0,000385829975
2	0	0	1	0	1393,6826	3,72120833	3,72142243	-0,028484299597847776	3	0,00723864743	0,00010600211
2	0	0	0	0	1433,4908	3,32312655	3,32346106	-0,034440807640311014	3	0,00592174521	0,00011446268
2	0	0	1	0	1473,2990	2,92504501	2,92535734	-0,039079415866311808	3	0,00448001176	0,000114321258
2	0	0	0	0	1513,1072	2,52696347	2,5272181	-0,048396328209761587	3	0,0027271572	0,000122308076
2	0	0	1	0	1552,9154	2,12888145	2,12920713	-0,081187451085834688	3	0,000378290832	0,000172864893
2	0	0	0	0	1592,7636	1,73039985	1,73056924	-0,27621642465668694	3	-0,00618894398	0,000478011643
2	0	0	1	0	1632,6118	1,331918	1,33195806	-4,9312325213794138	3	-0,0713593587	0,00656819483
2	1	0	0	1	1672,2604	1,06456304	1,06490135	-4,2615653270924557	3	-0,354435027	0,00453814678
2	1	0	1	1	1712,2686	1,46464527	1,46509707	0,1925741350795671	3	-0,387103111	0,000282139808
2	1	0	0	1	1752,1068	1,86302686	1,86339664	4,9281612899568333	3	-0,313832611	0,00918311905
2	1	0	1	1	1791,9950	2,26190901	2,26200795	1,2904610653166462	3	-0,0141605763	0,00291903317
2	1	0	0	1	1831,8432	2,66039062	2,6605792	0,078728174445805926	3	-0,00535396114	0,000209462538
2	1	0	1	1	1871,6514	3,05847239	3,05859423	0,079589359772702234	3	-0,00221798173	0,000243431554
2	1	0	0	0	1911,4026	3,45545387	3,45560789	0,078032458485622016	4	0,00245313812	0,000269649579
2	1	0	0	0	1951,2107	3,85353565	3,85363603	0,08870122431747351	4	0,00572703173	0,000341822248
2	0	0	0	0	1991,0393	3,74821401	3,74830413	-0,028520728284665565	4	0,00682475092	0,000106904365
2	0	0	1	0	2030,8475	3,35013199	3,35039163	-0,03434644767980055	4	0,00550277205	0,00011507405
2	0	0	0	0	2070,6557	2,95205045	2,95223904	-0,03763487258995024	4	0,00409160601	0,00011110714
2	0	0	1	0	2110,4639	2,55396891	2,55425048	-0,046500580691456461	4	0,00240101828	0,000118774129
2	0	0	0	0	2150,2721	2,15588713	2,15603089	-0,07456492790434921	4	0,000179391805	0,000160764292
2	0	0	1	0	2190,1203	1,75740528	1,75782907	-0,2487301304246543	4	-0,00577734597	0,000437225041
2	0	0	0	0	2229,9685	1,35892344	1,3590399	-3,9430767286706893	4	-0,0551656149	0,00535879843
2	1	0	1	1	2269,6171	1,03755748	1,03769946	-6,3070728944407795	4	-0,32997337	0,00654484611
2	1	0	0	1	2309,6253	1,43763971	1,43790412	0,10372227226832419	4	-0,385750711	0,000149142681
2	1	0	1	1	2349,4735	1,83612132	1,83643067	4,1885944417229555	4	-0,326641977	0,00769206323
2	1	0	0	1	2389,3617	2,23500347	2,23528671	4,7549633472054182	4	-0,0236115549	0,0106287068
[...]
2	0	0	0	0	2787,4351	1,785411	1,78564525	-0,2314542569220064	5	-0,00528793596	0,000413295202
2	0	0	1	0	2827,2833	1,38692927	1,38729215	-3,1241018636911002	5	-0,0430279709	0,00433404185
2	1	0	0	1	2866,9319	1,00955188	1,00992787	-8,1777371267477504	5	-0,301300615	0,00825892482
2	1	0	1	1	2906,9001	1,40923381	1,40946496	0,014904075741974886	5	-0,384634346	2,10067719E-005
2	1	0	0	1	2946,7783	1,8080157	1,80821848	3,5377537083846419	5	-0,337741286	0,00639703171
2	1	0	1	1	2986,5865	2,20609736	2,20638037	8,0602064220993766	5	-0,0476919897	0,0177838821
2	1	0	0	1	3026,4347	2,60457921	2,60491586	0,07678887106616183	5	-0,00511318678	0,000200028546
2	1	0	1	1	3066,2429	3,00266123	3,00279737	0,076406949010022042	5	-0,00213998579	0,00022943459
2	1	0	0	0	3106,0141	3,39984274	3,40014005	0,074478030773914573	6	0,00196061423	0,000253235747
2	1	0	1	0	3145,8223	3,7979238	3,79801702	0,078201205107486963	6	0,00496492116	0,000297009508
2	0	0	1	0	3185,6111	3,80422521	3,80456829	-0,026798146983815498	6	0,00645253854	0,000101955382
2	0	0	1	0	3225,4192	3,4061439	3,40622449	-0,034613349052457107	6	0,00514666969	0,00011790084
2	0	0	0	0	3265,2274	3,00806117	3,00827074	-0,035502647178114131	6	0,00376409851	0,000106801577
2	0	0	1	0	3305,0355	2,60998034	2,61031866	-0,043726759208194022	6	0,00216628751	0,000114140777
2	0	0	0	0	3344,8437	2,2118988	2,21207237	-0,064447538970314522	6	0,000134970411	0,000142562625
2	0	0	1	0	3384,6919	1,81341672	1,81366587	-0,21738693849356138	6	-0,00478561083	0,000394267263
2	0	0	0	0	3424,5401	1,41493511	1,41516149	-2,4165654717772186	6	-0,0339544676	0,00341983046
2	0	0	1	0	3464,3483	1,01685321	1,01711547	-8,6208771842497574	6	-0,271075904	0,00876842719
2	1	0	0	1	3504,0369	1,38002789	1,38039815	-0,086543677736901299	6	-0,383343965	0,000119464734
2	1	0	1	1	3544,0351	1,78000998	1,78032243	2,9757574506931661	6	-0,346903741	0,00529780751
2	1	0	0	1	3583,8433	2,17809153	2,17834616	9,609946984935689	6	-0,0788095817	0,020933792
2	1	0	1	1	3623,6915	2,57657337	2,57686377	0,078198390202251827	6	-0,00504850317	0,000201506598
2	1	0	0	1	3663,4997	2,97465515	2,97486973	0,07461720450643328	6	-0,00213224743	0,000221976457
2	1	0	1	0	3703,2189	3,37123632	3,37132716	0,073561010287246822	7	0,00172187295	0,000247998221
2	1	0	0	0	3743,0271	3,76931834	3,76948023	0,074778386762504038	7	0,004648712	0,000281875662
2	0	0	0	0	3782,7759	3,83323145	3,83326125	-0,025282057101355373	7	0,00635031657	9,69127286E-005
2	0	0	1	0	3822,5841	3,43514943	3,4354465	-0,034619957152581658	7	0,00506168511	0,000118935008
2	0	0	1	0	3862,3922	3,03706837	3,03708911	-0,034936838669592461	7	0,00368507416	0,000106106294
2	0	0	0	0	3902,2003	2,63898683	2,6393683	-0,042697536965626502	7	0,0021257156	0,000112694528
2	0	0	1	0	3942,0085	2,24090457	2,24109936	-0,06039792163883895	7	0,000170589527	0,000135357739
2	0	0	0	0	3981,8567	1,8424226	1,84275043	-0,20077337793729955	7	-0,00428290432	0,000369975227
2	0	0	1	0	4021,7049	1,44394088	1,44413483	-1,7710082312976835	7	-0,0271198265	0,00255757477
2	0	0	0	0	4061,5131	1,04585922	1,04630673	-8,3109189029093069	7	-0,239812583	0,00869577006
2	1	0	0	1	4101,2019	1,35102201	1,35138047	-0,21136160643288448	7	-0,381726801	0,00028562994
2	1	0	1	1	4141,2001	1,75100422	1,7513448	2,4633137947983245	7	-0,354659021	0,00431411201
2	1	0	0	1	4181,0083	2,14908576	2,14932847	9,7654744949605709	7	-0,11321418	0,0209892131
2	1	0	1	1	4220,8565	2,54756784	2,54791331	0,083438910345581453	7	-0,00505620986	0,000212595114
2	1	0	0	1	4260,6647	2,94564939	2,94587493	0,072599375059965939	7	-0,00217626197	0,000213868683
2	1	0	1	1	4280,6943	3,14604139	3,14631605	0,078630954027175898	7	-0,000659882149	0,000247397838

File: LTO_Korrosion_08_CV_C02.mpt
EC-Lab ASCII FILE
Nb header lines : 61

Cyclic Voltammetry

Run on channel : 2 (SN 6986)
Grouped channel(s) : 2
User :
CE vs. WE compliance from -10 V to 10 V
Electrode connection : standard
Ewe ctrl range : min = 0,00 V, max = 5,00 V
Acquisition started on : 09.04.2015 14:14:19
Saved on :
	File : LTO_Korrosion_08_CV_C02.mpr
	Directory : C:\Gielisch\AlteZelle\150904_LTO_Korrosion\
	Host : 192.168.0.2
Device : VMP3 (SN 0324)
Address : 192.168.0.1
EC-Lab for windows v10.33 (software)
Internet server v10.33 (firmware)
Command interpretor v10.32 (firmware)
Electrode material :
Initial state :
Electrolyte :
Comments :
Electrode surface area : 0,001 cm²
Characteristic mass : 0,001 g
Equivalent Weight : 0,000 g/eq.
Density : 0,000 g/cm3
Ei (V)              0,000
vs.                 Eoc
dE/dt               10,000
dE/dt unit          mV/s
E1 (V)              4,000
vs.                 Ref
Step percent        50
N                   10
E range min (V)     0,000
E range max (V)     5,000
I Range             Auto
Bandwidth           5
E2 (V)              0,600
vs.                 Ref
nc cycles           0
Reverse Scan        1
Ef (V)              0,000
vs.                 Eoc

Modify on : 09.04.2015 14:32
E2 (V)              1,000

Number of loops : 7
Loop 0 from point number 0 to 5997
Loop 1 from point number 5998 to 11996
Loop 2 from point number 11997 to 17995
Loop 3 from point number 17996 to 23993
Loop 4 from point number 23994 to 29993
Loop 5 from point number 29994 to 35992
Loop 6 from point number 35993 to 41992

mode	ox/red	error	control changes	counter inc.	time/s	control/V	Ewe/V	<I>/mA	cycle number	(Q-Qo)/C	P/W
2	1	0	0	0	212471,0460	1,50220346	1,50329101	0,0066841905936598784	1	0	1,00482839E-005
2	1	0	0	0	212510,3291	1,89503348	1,89580452	5,7969009456811597	1	0,0980862156	0,0109897908
2	1	0	0	0	212549,5371	2,28711414	2,28778458	2,0747809904041005	1	0,364952445	0,00474665174
2	1	0	1	0	212588,7853	2,67959476	2,68031645	0,10106599915565762	1	0,382677078	0,00027088885
2	1	0	1	0	212627,9933	3,07167554	3,07233644	0,097694170540543629	1	0,386314631	0,000300149346
2	1	0	1	0	212667,2013	3,46375561	3,46460056	0,097253980261653222	1	0,390342712	0,000336946192
2	1	0	1	0	212706,4094	3,85583496	3,85641551	0,078532236028987738	1	0,393772393	0,000302852946
2	0	0	0	0	212745,6079	3,75221491	3,75286484	-0,024420901331015709	1	0,3945539	9,16483405E-005
2	0	0	0	0	212784,8159	3,36013412	3,36078262	-0,030965966534697075	1	0,39338544	0,000104069884
2	0	0	1	0	212824,0241	2,96805382	2,96860695	-0,031316247009844589	1	0,392142296	9,29656308E-005
2	0	0	1	0	212863,2321	2,57597327	2,5766046	-0,041133878097213914	1	0,390803844	0,000105985739
2	0	0	1	0	212902,4801	2,1834929	2,18414831	-0,1141345425750371	1	0,387953192	0,000249286764
2	0	0	0	0	212941,6883	1,79141223	1,79214156	-0,29654857661161082	1	0,380777538	0,000531457015
2	0	0	0	0	212980,9363	1,39893174	1,39949417	-3,0459698709073139	1	0,344534665	0,00426281709
2	0	0	0	0	213020,1443	1,00685132	1,00756347	-8,8452110941762995	1	0,0798842087	0,00891211163
2	1	0	0	1	213059,3531	1,38522899	1,38579106	0,050345162686857402	1	0,00107774849	6,9767877E-005
2	1	0	0	0	213098,6033	1,77740943	1,77813148	3,8629928418883494	2	0,0476123281	0,00686890911
2	1	0	0	0	213137,8113	2,16948986	2,17017341	7,4350965321063424	2	0,317461908	0,0161354486
2	1	0	0	0	213177,0594	2,56197023	2,56256294	0,12009036208123592	2	0,38044396	0,000307739101
2	1	0	1	0	213216,2676	2,95405078	2,95468521	0,0781631009842928	2	0,383734941	0,000230947364
2	1	0	1	0	213255,4756	3,34613132	3,34669638	0,085151558491849856	2	0,38705188	0,000284976413
2	1	0	1	0	213294,6836	3,73821139	3,73880863	0,074383661876884058	2	0,390175432	0,000278106279
2	0	0	0	0	213333,8322	3,87033916	3,87097406	-0,01956593799965321	2	0,391952783	7,57392409E-005
2	0	0	0	0	213373,0402	3,47825861	3,47892761	-0,032961650971426618	2	0,390807033	0,000114671195
2	0	0	0	0	213412,2483	3,08617926	3,08680201	-0,032796986057338138	2	0,38950628	0,000101237805
2	0	0	1	0	213451,4564	2,69409776	2,69472289	-0,034937866355499392	2	0,388193339	9,41478647E-005
2	0	0	1	0	213490,6644	2,30201721	2,30265379	-0,082361934361635085	2	0,386155665	0,000189651022
2	0	0	0	0	213529,9126	1,9095366	1,91008222	-0,19716125188602262	2	0,381110132	0,000376594195
2	0	0	0	0	213569,1606	1,51705599	1,51759481	-1,0096861159911874	2	0,365337968	0,00153229444
2	0	0	0	0	213608,3686	1,12497544	1,12571716	-7,9166105257140634	2	0,197791696	0,0089118639
2	1	0	1	1	213647,4672	1,26600432	1,26679599	-0,46016476800044435	2	0,00408485951	0,000582934881
2	1	0	1	0	213686,8197	1,65918446	1,66003919	1,7389959817648874	3	0,0133526847	0,00288680149
2	1	0	0	0	213726,0278	2,05126572	2,05200171	7,8255193575665203	3	0,203627199	0,0160579793
2	1	0	0	0	213765,2758	2,44374609	2,44444942	0,22380508537645693	3	0,376089334	0,000547080184
2	1	0	0	0	213804,4840	2,8358264	2,83649588	0,070641657577885542	3	0,380186617	0,000200374765
2	1	0	1	0	213843,6921	3,22790718	3,22854733	0,082781181877685901	3	0,383256912	0,000267262978
2	1	0	1	0	213882,9001	3,61998725	3,62082958	0,07382946618384201	3	0,386348337	0,000267323921
2	0	0	0	0	213922,0387	3,98866367	3,98933697	0,00078101115172170278	3	0,389076591	3,11571671E-006
2	0	0	0	0	213961,2867	3,59618282	3,59682322	-0,032517258707364941	3	0,388144344	0,000116958829
2	0	0	1	0	214000,4949	3,20410204	3,20475411	-0,033146253812851411	3	0,386828661	0,000106225591
2	0	0	1	0	214039,7029	2,81202149	2,81266737	-0,033357110568667078	3	0,385520577	9,38224548E-005
2	0	0	1	0	214078,9109	2,41994143	2,42046547	-0,057266916674389158	3	0,383926004	0,000138612595
2	0	0	1	0	214118,1590	2,02746129	2,0281651	-0,1393123443770583	3	0,380117208	0,000282548426
2	0	0	0	0	214157,3671	1,63538015	1,63591754	-0,41062517146821696	3	0,37050432	0,000671748945
2	0	0	0	0	214196,6151	1,24289989	1,24337268	-5,2558664254568512	3	0,283585727	0,00653500063
2	1	0	1	1	214235,6637	1,14758015	1,14840627	-2,5577599654594998	3	0,025548907	0,00293734763
2	1	0	1	0	214274,9881	1,54026067	1,54079556	0,4356650025756297	4	0,00123398774	0,000671270711
2	1	0	0	0	214314,2363	1,93274128	1,93351853	5,7761245822464742	4	0,113624036	0,0111682443
2	1	0	0	0	214353,4443	2,32482171	2,32560563	1,8653942661152989	4	0,364594996	0,00433817133
2	1	0	0	0	214392,6923	2,71730256	2,71781707	0,067846215183467226	4	0,375818759	0,000184393604
2	1	0	1	0	214431,9006	3,10938263	3,10998416	0,07870779985872439	4	0,378621966	0,000244780007
2	1	0	1	0	214471,1086	3,50146341	3,50207472	0,073204649646801395	4	0,381691456	0,000256368163
2	1	0	1	0	214510,3166	3,89354396	3,89418411	0,067494317570149069	4	0,384462923	0,000262835296
2	0	0	0	0	214549,5452	3,7142067	3,71492338	-0,029420252889394682	4	0,38463369	0,000109293986
2	0	0	0	0	214588,7532	3,32212639	3,32266736	-0,033072823067885504	4	0,383333355	0,000109889988
2	0	0	1	0	214627,9614	2,93004632	2,93052316	-0,032881669105134125	4	0,382021338	9,63604907E-005
2	0	0	1	0	214667,1694	2,53796554	2,5386498	-0,042629503683807469	4	0,38062495	0,000108221378
2	0	0	1	0	214706,4174	2,14548492	2,14604712	-0,11061262780869475	4	0,377775818	0,000237379907
2	0	0	0	0	214745,6256	1,75340426	1,75401807	-0,27073205379700214	4	0,370524973	0,000474868924
2	0	0	0	0	214784,8736	1,36092401	1,36159325	-2,926134730930656	4	0,331975549	0,00398420542
2	1	0	1	1	214823,9222	1,02955592	1,03015876	-7,3702438153602829	4	0,0934152752	0,00759252114
[...]
2	0	0	0	0	215216,2177	3,04806995	3,04883718	-0,033149688965986022	5	0,379067868	0,000101068006
2	0	0	0	0	215255,4257	2,65598965	2,65657687	-0,035693081884851987	5	0,37773782	9,48214147E-005
2	0	0	0	0	215294,6337	2,26390934	2,26465511	-0,084175245913986394	5	0,375626922	0,000190627907
2	0	0	1	0	215333,8819	1,87142873	1,87206972	-0,2193149257175344	5	0,37039423	0,000410572829
2	0	0	1	0	215373,1299	1,47894812	1,47935545	-1,1361855043581261	5	0,352847964	0,00168082223
2	0	0	1	0	215412,3379	1,08686769	1,08753121	-7,2638561405517235	5	0,194180295	0,00789966993
2	1	0	0	1	215451,3865	1,30361223	1,30411851	-0,90549687047799309	5	0,0098598646	0,00118087523
2	1	0	1	0	215490,6451	1,69559264	1,69621861	1,9516446027490701	6	0,0173216332	0,00331041589
2	1	0	1	0	215529,8531	2,08767319	2,08835888	7,3389369536329523	6	0,200589523	0,0153263342
2	1	0	0	0	215569,1013	2,48015356	2,48074841	0,14095303295525141	6	0,367187828	0,000349669019
2	1	0	0	0	215608,3093	2,87223411	2,87272787	0,064608996026908288	6	0,370155662	0,000185604062
2	1	0	0	0	215647,5173	3,26431441	3,26500154	0,076132499966425459	6	0,373006105	0,000248572731
2	1	0	1	0	215686,7255	3,65639496	3,65706587	0,068486555712297446	6	0,375817299	0,000250459852
2	0	0	1	0	215725,9640	3,95125556	3,95189905	-0,012849045089549496	6	0,378108054	5,07781297E-005
2	0	0	1	0	215765,1720	3,55917549	3,55976367	-0,033711696828336192	6	0,377038181	0,000120005672
2	0	0	1	0	215804,3801	3,16709518	3,16754341	-0,033340296454168582	6	0,375710964	0,000105606836
2	0	0	0	0	215843,5882	2,7750144	2,77564359	-0,033724586255158726	6	0,374396175	9,36074284E-005
2	0	0	0	0	215882,7962	2,38293386	2,38363647	-0,060443436071553114	6	0,372749776	0,00014407518
2	0	0	1	0	215922,0444	1,99045289	1,99097991	-0,14624763993615379	6	0,36883679	0,000291176111
2	0	0	1	0	215961,2524	1,5983727	1,59904456	-0,48779903931749581	6	0,35850808	0,0007800124
2	0	0	1	0	216000,4904	1,2059921	1,20677996	-5,0288057084436986	6	0,269875795	0,00606866181
2	1	0	0	1	216039,5490	1,18458772	1,18533254	-2,8504972761427824	6	0,034869682	0,00337878708
2	1	0	0	0	216078,8256	1,57666814	1,57726777	0,58675281289551155	7	0,00245636981	0,000925466302
2	1	0	0	0	216118,0736	1,96914876	1,96987092	5,5667550762493933	7	0,117158271	0,0109657887
2	1	0	1	0	216157,2818	2,3612299	2,36193585	1,2084741789587739	7	0,358787507	0,00285433838
2	1	0	1	0	216196,5298	2,75370979	2,75435162	0,06055401448436393	7	0,365053415	0,000166787053
2	1	0	1	0	216235,7378	3,1457901	3,14649129	0,074544774256301466	7	0,367691219	0,000234554478
2	1	0	0	0	216274,9460	3,5378716	3,53852153	0,06782534610449431	7	0,370540917	0,000240001449
2	1	0	0	0	216314,1540	3,92995119	3,9307363	0,065214492440982323	7	0,37315613	0,00025634098
2	0	0	0	0	216353,3425	3,67819953	3,67874932	-0,031154311128409274	7	0,372922421	0,000114608898
2	0	0	0	0	216392,5505	3,28611875	3,28676057	-0,033192938853365715	7	0,371603429	0,000109097244
2	0	0	1	0	216431,7587	2,89403915	2,89471841	-0,033129163487400333	7	0,370289147	9,58996025E-005
2	0	0	1	0	216470,9667	2,50195813	2,50266266	-0,043929121323378675	7	0,368871719	0,00010993977
2	0	0	1	0	216510,2147	2,10947776	2,11007309	-0,1126427639758697	7	0,365921259	0,000237684464
2	0	0	0	0	216549,4229	1,71739697	1,71810627	-0,27221875472201517	7	0,358389586	0,000467700738
2	0	0	0	0	216588,6709	1,32491648	1,32552123	-2,9901286758206778	7	0,315676808	0,00396347884
2	1	0	0	1	216627,7193	1,0655632	1,06618178	-5,8971832620877082	7	0,0907338113	0,00628746953
2	1	0	1	1	216666,9675	1,45804381	1,45851338	-0,15190472065781546	7	0,00536442688	0,000221555063
2	1	0	0	1	216671,7035	1,50540411	1,50625515	0,097622544504702093	7	0,0052344813	0,000147044455