Folder: thesis/Experimentelles/Ausgewaehlte_Daten/LTO/GCPL

Note: README.md
# thesis

Zusammenfassung
---------------
Es konnten die Festkörperelektrolytkeramiken LATP, LAGP, LTO und LLTO hergestellt,
mit XRD und MAS-NMR charakterisiert und zu Elektrodensuspensionen weiterverarbeitet
werden. Aus den Daten der MAS-NMR konnten dabei gegenüber der XRD keine Mehrinfor-
mationen gewonnen werden. Die mit den Suspensionen gegossenen und gestanzten Elektro-
denproben wurden mittels REM und EDX untersucht und als Kathode in Testzellen verbaut.
Mit diesen wurden Ladekennlinien erstellt und eine zyklischer Voltametrie durchgeführt. Aus
den Ladekennlinien konnten die Kapazitäten und der Grad der Lithiuminsertation in die
Materialen bestimmt werden. Die zyklische Voltametrie lieferte nicht-reaktive Spannungsbe-
reiche der Materialien.

Für ein noch besseres Verständnis der Lithiumbewegung und -insertation wurde eine in-situ
NMR-Testzelle konzipiert, konstruiert, gebaut und getestet. Für den Test kam dabei eine
Lithium-Schwefel-Zelle zum Einsatz, für welche ein Di?usionskoe?zient sowie ein Spektrum
vor und nach einer 90 minütigen Ladezeit aufgenommen worden ist.

Abstract
--------
The all solid state electrolyte ceramics LATP, LAGP, LTO, and LLTO were successfully
synthesized and characterized by using XRD. MAS-NMR spectroscopy were not able to ge-
nerate additional information. All powders were processed to electrode slurries, casted on
aluminum foils and punched to electrode samples. Those samples were studied by SEM and
EDX and then build into battery test cells. The cells were analyzed by measuring the charge
curves as well as cyclic voltammetry. With the charge curves capacities and the amount of
lithium insertion were calculated. The cyclic voltammetry was able to detect non-reactive
voltage regions.

To be able to better understand lithium movement and insertion a novel in-situ NMR sample
cell was designed, constructed, built and tested. Therefore, a lithium-sulfur-cell was built into
the in-situ sample cell. With this setting a diffusion coeffcient as well as a NMR spectrum
before and after 90 minutes of charging were measured.

File: LTO_Korrosion_05_GCPL_C02.mpt
EC-Lab ASCII FILE
Nb header lines : 75

Galvanostatic Cycling with Potential Limitation

Run on channel : 2 (SN 6986)
Grouped channel(s) : 2
User :
CE vs. WE compliance from -10 V to 10 V
Electrode connection : standard
Ewe ctrl range : min = 0,00 V, max = 5,00 V
Acquisition started on : 09.04.2015 14:14:19
Saved on :
	File : LTO_Korrosion_05_GCPL_C02.mpr
	Directory : C:\Gielisch\AlteZelle\150904_LTO_Korrosion\
	Host : 192.168.0.2
Device : VMP3 (SN 0324)
Address : 192.168.0.1
EC-Lab for windows v10.33 (software)
Internet server v10.33 (firmware)
Command interpretor v10.32 (firmware)
Electrode material :
Initial state :
Electrolyte :
Comments :
Electrode surface area : 0,001 cm²
Characteristic mass : 0,001 g
Equivalent Weight : 0,000 g/eq.
Density : 0,000 g/cm3
Ns                  0                   1                   2
Set I/C             I                   I                   I
Is                  0,000               40,000              -40,000
unit Is             mA                  µA                  µA
vs.                 <None>              <None>              <None>
N                   1                   1                   1
I sign              > 0                 > 0                 > 0
t1 (h:m:s)          0:00:0,0000         6:00:0,0000         6:00:0,0000
I Range             100 µA              100 µA              100 µA
Bandwidth           5                   5                   5
dE1 (mV)            0,00                10,00               10,00
dt1 (s)             0,0000              10,0000             10,0000
EM (V)              0,000               4,000               1,500
tM (h:m:s)          0:00:0,0000         0:00:0,0000         0:00:0,0000
Im                  0,000               0,000               0,000
unit Im             mA                  mA                  mA
E range min (V)     0,000               0,000               0,000
E range max (V)     5,000               5,000               5,000
dq                  0,000               1,000               1,000
unit dq             mA.h                mA.h                mA.h
dtq (s)             0,0000              120,0000            120,0000
dQM                 0,000               0,000               0,000
unit dQM            mA.h                mA.h                mA.h
dxM                 0,000               0,000               0,000
tR (h:m:s)          0:00:0,0000         0:00:0,0000         0:00:0,0000
dER/dt (mV/h)       0,0                 0,1                 0,1
dER (mV)            0,00                5,00                5,00
dtR (s)             1,0000              120,0000            120,0000
EL (V)              pass                4,200               3,500
goto Ns'            0                   0                   0
nc cycles           0                   0                   0

Number of loops : 11
Loop 0 from point number 0 to 1298
Loop 1 from point number 1299 to 3626
Loop 2 from point number 3627 to 5954
Loop 3 from point number 5955 to 8281
Loop 4 from point number 8282 to 10607
Loop 5 from point number 10608 to 12933
Loop 6 from point number 12934 to 15257
Loop 7 from point number 15258 to 17581
Loop 8 from point number 17582 to 19904
Loop 9 from point number 19905 to 22226
Loop 10 from point number 22227 to 24547

mode	ox/red	error	control changes	Ns changes	counter inc.	Ns	time/s	control/V/mA	Ewe/V	dq/mA.h	<I>/mA	P/W	(Q-Qo)/mA.h	Capacity/mA.h
1	1	0	0	1	0	1	4305,2837	0,0400000028	3,14299011	0	0	0	0	0
1	0	0	1	0	0	2	5501,8473	-0,0400000028	1,5535481	-0,00011108141049080426	-0,039989308260847821	6,2125313E-005	-0,009613550658929623	0,011452678738493062
1	0	0	1	0	0	2	9271,8472	-0,0400000028	1,55133557	-0,00011108138652621872	-0,039989299633596922	6,20368228E-005	-0,051491274830224506	0,053330402909787942
1	0	0	1	0	0	2	13041,8472	-0,0400000028	1,54773068	-0,00011108168725938434	-0,039989407897537856	6,18928316E-005	-0,093368938539539802	0,095208066619103232
1	1	0	1	0	0	1	16793,2603	0,0400000028	1,57073319	0,00011112828835824298	0,04000618429333008	6,28390408E-005	-0,088690348028718246	0,02317926896373393
1	1	0	1	0	0	1	20563,2603	0,0400000028	1,57250702	0,00011112806583051051	0,040006104183345427	6,29098795E-005	-0,046795045693980397	0,065074571298471718
1	1	0	1	0	0	1	23970,2049	0,0400000028	2,31366038	2,1852463434760768E-005	0,040006544608106195	9,25615605E-005	-0,0089342552898775808	0,10293536170257469
1	0	0	0	0	0	2	24642,7730	-0,0400000028	1,92079639	-5,5566381236331334E-005	-0,03998860044611351	7,68099562E-005	-0,0073964218101279232	0,0029675120159333792
1	0	0	0	0	0	2	28343,6460	-0,0400000028	1,55230832	-0,00011108041324652733	-0,039988949252903776	6,20751816E-005	-0,048505927897052122	0,044077018102857581
1	0	0	0	0	0	2	32113,6460	-0,0400000028	1,54912305	-0,00011108008649303682	-0,039988831621645773	6,19476195E-005	-0,090383483209779315	0,085954573415584794
1	1	0	1	0	0	1	35860,1452	0,0400000028	1,56987488	0,00011112691923831072	0,040005690851275456	6,2803927E-005	-0,10031040769399715	0,015847542904285264
1	1	0	1	0	0	1	39630,1452	0,0400000028	1,57126725	0,00011112756167497072	0,040005922128472621	6,28599955E-005	-0,05841529091457161	0,05774265968371072
1	1	0	1	0	0	1	43400,1452	0,0400000028	1,62472999	0,00011112765147474906	0,040005954456392762	6,49988724E-005	-0,016520228984291805	0,0996377216139904
1	0	0	0	0	0	2	44294,7822	-0,0400000028	2,64247584	-1,1099198971978493E-005	-0,039989107509836762	0,000105670253	-0,0092553550796678886	0,0013382142312888886
1	0	0	0	0	0	2	47425,9348	-0,0400000028	1,55288053	-0,00011107975550409821	-0,039988711906990579	6,20976934E-005	-0,044036213927532486	0,036119073079153466
1	0	0	0	0	0	2	51195,9348	-0,0400000028	1,5500958	-0,00011107997094715637	-0,03998878946649136	6,19864513E-005	-0,085913429592987866	0,077996288744608819
1	1	0	1	0	0	1	54949,8676	0,0400000028	1,56895936	0,00011112797512941891	0,04000607097207369	6,27678965E-005	-0,11058407623316406	0,0085152953033713741
1	1	0	1	0	0	1	58719,8676	0,0400000028	1,57080948	0,00011112816146637003	0,040006138053375968	6,28420239E-005	-0,068688795106507622	0,050410576430027814
1	1	0	1	0	0	1	62489,8676	0,0400000028	1,5753299	0,00011112926240513722	0,040006534391331424	6,30234863E-005	-0,026793411609313043	0,092305959927222272
1	0	0	0	0	0	2	64007,5802	-0,0400000028	3,32467318	-1,0230467554181814E-005	-0,039988798187796134	0,000132949688	-0,011168469749663142	0,00062047358239069594
1	0	0	0	0	0	2	66529,6992	-0,0400000028	1,55316663	-0,00011108078410724798	-0,039988291963354803	6,21084837E-005	-0,03918389992759968	0,02863590376032721
1	0	0	0	0	0	2	70299,7737	-0,0400000028	1,55053449	-0,0001110825868818081	-0,039988940883731309	6,20042338E-005	-0,081061737116343539	0,070513740949070989
1	1	0	1	0	0	1	74053,9348	0,0400000028	1,55356717	0,00011113055309156578	0,040006208378412454	6,21523286E-005	-0,12018106739858373	0,0012906631053324406
1	1	0	1	0	0	1	77824,0093	0,0400000028	1,57067597	0,00011112985742795798	0,040005958093960141	6,28363996E-005	-0,078284946536717632	0,043186783967198426
1	1	0	1	0	0	1	81594,0838	0,0400000028	1,57328904	0,00011113086519514522	0,040006320744657741	6,29415081E-005	-0,036388718383574061	0,085083012120341939
1	0	0	0	0	0	2	83727,9889	-0,0400000028	3,98671007	-4,4920366207758586E-006	-0,039988466073364435	0,000159422416	-0,012683854964367483	4,494236096739769E-006
[...]
1	0	0	0	0	0	2	143289,3446	-0,0400000028	2,13066077	-3,6536355595621798E-005	-0,039988708371285568	8,52023732E-005	-0,019758809480205174	0,0023397053714719491
1	0	0	0	0	0	2	146873,5306	-0,0400000028	1,55175519	-0,00011107921971235837	-0,039988512839758618	6,20523788E-005	-0,059571517810518925	0,042152413701785722
1	0	0	0	0	0	2	150643,5312	-0,0400000028	1,54822659	-0,00011107880097358592	-0,039988362093824115	6,19110433E-005	-0,10144820544985442	0,084029101341121178
1	1	0	1	0	0	1	154399,1524	0,0400000028	1,5702945	0,00011112775971016122	0,040005987236233562	6,28211783E-005	-0,11281885680554018	0,015175948479398576
1	1	0	1	0	0	1	158169,1529	0,0400000028	1,57203019	0,00011112733727693558	0,040005835160296128	6,28903799E-005	-0,070923798484908275	0,057071006800030426
1	1	0	1	0	0	1	161939,1535	0,0400000028	1,59480381	0,00011112824771284229	0,040006162917171258	6,38019847E-005	-0,029028685267896646	0,09896612001704201
1	0	0	0	0	0	2	162979,7025	-0,0400000028	2,74295425	-1,0094832775907386E-005	-0,039988327831704883	0,000109686152	-0,019824932392103331	0,001179588243408957
1	0	0	0	0	0	2	166066,5106	-0,0400000028	1,55202222	-0,00011107921400955981	-0,039988510786751462	6,20630599E-005	-0,054112888160875789	0,035467544012181459
1	0	0	0	0	0	2	169836,5112	-0,0400000028	1,54893231	-0,00011107890406230258	-0,039988399205756307	6,1939325E-005	-0,095989702238850765	0,077344358090156442
1	1	0	1	0	0	1	173584,6894	0,0400000028	1,56947434	0,00011112794547362461	0,040006054111069907	6,27884729E-005	-0,12083558662433234	0,0083955635013194342
1	1	0	1	0	0	1	177354,6900	0,0400000028	1,57185853	0,0001111277040263845	0,040005967190077075	6,28837224E-005	-0,078940213823600282	0,05029093630205145
1	1	0	1	0	0	1	181124,6905	0,0400000028	1,57622635	0,00011112746473298306	0,040005881044466035	6,30583236E-005	-0,037044955360573914	0,092186194765077773
1	0	0	0	0	0	2	182730,2592	-0,0400000028	3,35438943	-9,8771790787577638E-006	-0,03998857302152121	0,000134137241	-0,020360737349262134	0,00057893655372141952
1	0	0	0	0	0	2	185269,4222	-0,0400000028	1,55215573	-0,00011107915618332725	-0,039988489969310989	6,20683641E-005	-0,048565542602847955	0,028783741807307213
1	0	0	0	0	0	2	189039,4228	-0,0400000028	1,54952359	-0,00011108006834425034	-0,039988818347191923	6,19636194E-005	-0,090442492112836736	0,070660691317296038
1	1	0	1	0	0	1	192789,3110	0,0400000028	1,56071973	0,00011112827704391546	0,040006173476355949	6,24384265E-005	-0,12864441285514714	0,0017256331678089802
1	1	0	1	0	0	1	196559,3116	0,0400000028	1,57178223	0,00011112774747216867	0,040005982830556934	6,28806956E-005	-0,086749357878844787	0,043620688144111277
1	1	0	1	0	0	1	200329,3121	0,0400000028	1,57464325	0,00011112840287076931	0,040006218774016243	6,29955248E-005	-0,044854279713924154	0,08551576630903191
1	0	0	0	0	0	2	202492,2351	-0,0400000028	3,95607805	-6,6713645917673907E-006	-0,039988193138495667	0,000158196417	-0,020866084620809798	2,3924023484397264E-005
1	0	0	0	0	0	2	204488,4776	-0,0400000028	1,55251813	-0,00011107864562132291	-0,039988306167018195	6,20825667E-005	-0,043040068137548282	0,022197907540222813
1	0	0	0	0	0	2	208258,4782	-0,0400000028	1,54990506	-0,00011107890963595773	-0,039988401212271859	6,19782222E-005	-0,084916760228184563	0,064074599630859226
1	0	0	0	0	0	2	212028,4788	-0,0400000028	1,53951013	-0,00011107841777946384	-0,03998822414396176	6,15622776E-005	-0,12679333893352107	0,1059511783361957
1	0	0	0	0	0	2	212445,1986	-0,0400000028	1,49995196	-7,4642818268595469E-005	-0,039988407943514042	5,99806917E-005	-0,13142220773993813	0,1105800471426127

File: LTO_Korrosion_bessereGCPL_01_GCPL_C02.mpt
EC-Lab ASCII FILE
Nb header lines : 68

Galvanostatic Cycling with Potential Limitation

Run on channel : 2 (SN 6986)
Grouped channel(s) : 2
User :
CE vs. WE compliance from -10 V to 10 V
Electrode connection : standard
Ewe ctrl range : min = 0,00 V, max = 5,00 V
Acquisition started on : 09.07.2015 11:32:40
Saved on :
	File : LTO_Korrosion_bessereGCPL_01_GCPL_C02.mpr
	Directory : C:\Gielisch\AlteZelle\150904_LTO_Korrosion\
	Host : 192.168.0.2
Device : VMP3 (SN 0324)
Address : 192.168.0.1
EC-Lab for windows v10.33 (software)
Internet server v10.33 (firmware)
Command interpretor v10.32 (firmware)
Electrode material :
Initial state :
Electrolyte :
Comments :
Electrode surface area : 0,001 cm²
Characteristic mass : 0,001 g
Equivalent Weight : 0,000 g/eq.
Density : 0,000 g/cm3
Ns                  0                   1                   2
Set I/C             I                   I                   I
Is                  0,000               40,000              -40,000
unit Is             mA                  µA                  µA
vs.                 <None>              <None>              <None>
N                   1                   1                   1
I sign              > 0                 > 0                 > 0
t1 (h:m:s)          0:00:0,0000         6:00:0,0000         6:00:0,0000
I Range             100 µA              100 µA              100 µA
Bandwidth           5                   5                   5
dE1 (mV)            0,00                10,00               10,00
dt1 (s)             0,0000              10,0000             10,0000
EM (V)              0,000               2,100               1,200
tM (h:m:s)          0:00:0,0000         0:00:0,0000         0:00:0,0000
Im                  0,000               0,000               0,000
unit Im             mA                  mA                  mA
E range min (V)     0,000               0,000               0,000
E range max (V)     5,000               5,000               5,000
dq                  0,000               1,000               1,000
unit dq             mA.h                mA.h                mA.h
dtq (s)             0,0000              120,0000            120,0000
dQM                 0,000               0,000               0,000
unit dQM            mA.h                mA.h                mA.h
dxM                 0,000               0,000               0,000
tR (h:m:s)          0:00:0,0000         0:00:0,0000         0:00:0,0000
dER/dt (mV/h)       0,0                 0,1                 0,1
dER (mV)            0,00                5,00                5,00
dtR (s)             1,0000              120,0000            120,0000
EL (V)              pass                4,200               3,500
goto Ns'            0                   0                   0
nc cycles           0                   0                   0

Number of loops : 4
Loop 0 from point number 0 to 1918
Loop 1 from point number 1919 to 3965
Loop 2 from point number 3966 to 6009
Loop 3 from point number 6010 to 8052

mode	ox/red	error	control changes	Ns changes	counter inc.	Ns	time/s	control/V/mA	Ewe/V	dq/mA.h	<I>/mA	P/W	(Q-Qo)/mA.h	Capacity/mA.h
1	1	0	1	1	0	1	0,0004	0,0400000028	1,564973	0	0	0	0	0
1	1	0	1	0	0	1	1230,0004	0,0400000028	1,57359421	0,00011112653026812605	0,040005551907150624	6,2952502E-005	0,013668153165078571	0,013668153165078571
1	1	0	1	0	0	1	2460,0003	0,0400000028	1,57506287	0,00011112763442657888	0,040005949404203686	6,30118884E-005	0,027336845390415206	0,027336845390415206
1	1	0	1	0	0	1	3690,0003	0,0400000028	1,57689393	0,0001111285367227263	0,04000627423082496	6,30856521E-005	0,041005602364187392	0,041005602364187392
1	1	0	1	0	0	1	4920,0003	0,0400000028	1,5790683	0,00011112787369969819	0,040006035016252147	6,31722651E-005	0,054674357978000557	0,054674357978000557
1	1	0	1	0	0	1	6150,0003	0,0400000028	1,58208191	0,00011112695386364229	0,040005703875268019	6,32923038E-005	0,068343062895838746	0,068343062895838746
1	1	0	1	0	0	1	7380,0003	0,0400000028	1,58623981	0,00011112722206322685	0,040005800427119622	6,34587923E-005	0,082011807486658458	0,082011807486658458
1	1	0	1	0	0	1	8544,5386	0,0400000028	1,89849007	5,9688893572323853E-005	0,040005961323888666	7,59509203E-005	0,094953107544906125	0,094953107544906125
1	0	0	0	0	0	2	9405,8546	-0,0400000028	1,5535481	-0,00011107792966067792	-0,039988055161987168	6,21233703E-005	0,087543084498242675	0,0084889182969286208
1	0	0	0	0	0	2	10635,8546	-0,0400000028	1,55236554	-0,0001110774881736272	-0,039987896226646989	6,20758292E-005	0,073880463990471322	0,022151538804699962
1	0	0	0	0	0	2	11865,8546	-0,0400000028	1,5516026	-0,00011107865267929931	-0,039988315448694029	6,20459759E-005	0,060217855031288038	0,035814147763883283
1	0	0	0	0	0	2	13095,8546	-0,0400000028	1,55097318	-0,00011107843555054731	-0,039988237282342355	6,20206847E-005	0,046555229469282291	0,04947677332588903
1	0	0	0	0	0	2	14325,8546	-0,0400000028	1,55003858	-0,00011107813283801078	-0,039988128305827891	6,19831408E-005	0,032892610522541882	0,063139392272629427
1	0	0	0	0	0	2	15555,8546	-0,0400000028	1,54847455	-0,00011107909646816552	-0,039988475212687795	6,19211351E-005	0,019229974232952973	0,076802028562218355
1	0	0	0	0	0	2	16785,8545	-0,0400000028	1,54544187	-0,00011107757682001424	-0,039987928139346714	6,17990154E-005	0,0055673920023169434	0,090464610792854285
1	0	0	0	0	0	2	18015,8545	-0,0400000028	1,50840139	-0,00011107805587972203	-0,039988100600843603	6,0318107E-005	-0,0080951876426820032	0,10412719043785323
1	1	0	1	0	0	1	19215,6427	0,0400000028	1,53155649	0,00011112839177478518	0,040006221523285728	6,12717849E-005	-0,010740375513102707	0,0053415562397918541
1	1	0	1	0	0	1	20445,6427	0,0400000028	1,57336533	0,0001111272502715389	0,04000581058211209	6,29437563E-005	0,0029283574193657498	0,01901028917226032
1	1	0	1	0	0	1	21675,6427	0,0400000028	1,57479584	0,00011112730621298154	0,040005830721031693	6,30010181E-005	0,01659701362741008	0,032678945380304666
1	1	0	1	0	0	1	22905,6427	0,0400000028	1,57616913	0,00011112717777242262	0,04000578448242992	6,30558861E-005	0,030265690701595949	0,046347622454490566
1	1	0	1	0	0	1	24135,6427	0,0400000028	1,57786667	0,00011112713488936424	0,040005769044528717	6,31237708E-005	0,043934396484912794	0,060016328237807411
1	1	0	1	0	0	1	25365,6426	0,0400000028	1,58030808	0,00011112784166323642	0,040006023483125779	6,32218434E-005	0,057603035985801312	0,073684967738695846
1	1	0	1	0	0	1	26595,6426	0,0400000028	1,58414185	0,00011112692523747683	0,040005693569848333	6,33746968E-005	0,071271710355236902	0,087353642108131405
1	1	0	1	0	0	1	27825,6426	0,0400000028	1,593297	0,00011112780429298678	0,040006010029835744	6,3741456E-005	0,084940388201526912	0,10102231995442142
1	0	0	0	0	0	2	28734,8646	-0,0400000028	1,92433453	-3,4440830131164851E-005	-0,03998806359235575	7,69504113E-005	0,094275040062096269	0,0003845718337932809
1	0	0	0	0	0	2	29850,8554	-0,0400000028	1,55303311	-0,00011107814849105974	-0,039988133940925574	6,21028958E-005	0,081878817578402099	0,012780794317487424
1	0	0	0	0	0	2	31080,8554	-0,0400000028	1,55217481	-0,00011107784207827515	-0,039988023632321792	6,20684004E-005	0,068216230958536794	0,026443380937352784
1	0	0	0	0	0	2	32310,8554	-0,0400000028	1,55143094	-0,00011107768119561174	-0,039987965714562272	6,2038569E-005	0,054553704567788282	0,040105907328101331
[...]
1	0	0	0	0	0	2	51524,5916	-0,0400000028	1,55186963	-0,00011107823519594966	-0,039988164596058118	6,20564169E-005	0,062308538121221722	0,031425226498405114
1	0	0	0	0	0	2	52754,5916	-0,0400000028	1,55118299	-0,00011107661848370402	-0,039987582579650765	6,20280553E-005	0,048645977397637171	0,045087787221989658
1	0	0	0	0	0	2	53984,5916	-0,0400000028	1,55021024	-0,00011107761784166926	-0,039987942348517587	6,19897182E-005	0,034983435022181696	0,058750329597445133
1	0	0	0	0	0	2	55214,5916	-0,0400000028	1,54898953	-0,00011107731577960982	-0,03998783360617639	6,19407365E-005	0,021320802387727616	0,072412962231899226
1	0	0	0	0	0	2	56444,5916	-0,0400000028	1,5465672	-0,000111078207914614	-0,039988154774777306	6,18443664E-005	0,0076582168887160179	0,086075547730910861
1	0	0	0	0	0	2	57674,5916	-0,0400000028	1,53462732	-0,00011107706884274051	-0,03998774470890361	6,13662851E-005	-0,0060042691824844096	0,099738033802111245
1	1	0	1	0	0	1	58876,8700	0,0400000028	1,29859424	0,00011112839347206885	0,040006221575427386	5,19518471E-005	-0,015815483511669434	0,0017715168527525366
1	1	0	1	0	0	1	60106,8700	0,0400000028	1,57409012	0,0001111272567241556	0,040005812346179386	6,2972751E-005	-0,0021467240806814637	0,015440276283740506
1	1	0	1	0	0	1	61336,8700	0,0400000028	1,57529175	0,00011112889057853155	0,040006400533753632	6,30217546E-005	0,011522012724260208	0,029109013088682176
1	1	0	1	0	0	1	62566,8700	0,0400000028	1,57704651	0,00011112700111149914	0,040005720325623226	6,30908835E-005	0,025190735667855923	0,042777736032277907
1	1	0	1	0	0	1	63796,8700	0,0400000028	1,57899201	0,00011112744836509229	0,040005881336916461	6,31689691E-005	0,038859403512723885	0,056446403877145843
1	1	0	1	0	0	1	65026,8700	0,0400000028	1,58168137	0,00011112730580754578	0,040005830016199821	6,32764786E-005	0,052528090750851251	0,070115091115273293
1	1	0	1	0	0	1	66256,8842	0,0400000028	1,58562946	0,0001111289670198328	0,040005637504003379	6,34341195E-005	0,066196980462991603	0,08378398082741367
1	1	0	1	0	0	1	67486,9085	0,0400000028	1,59249592	0,00011113006725307141	0,040006033480011405	6,37094417E-005	0,079865938082804045	0,097452938447226112
1	1	0	1	0	0	1	68617,7739	0,0400000028	1,97701514	4,5786892379737568E-005	0,040006031707118758	7,90925333E-005	0,092433023907920166	0,11002002427234224
1	0	0	0	0	0	2	69501,5503	-0,0400000028	1,553262	-0,00011108021998922859	-0,039988088819709504	6,21119761E-005	0,083608443959014272	0,009320790819621751
1	0	0	0	0	0	2	70731,5746	-0,0400000028	1,55207944	-0,00011107983184730013	-0,039987949240340819	6,20644714E-005	0,069945673899340352	0,022983560879295702
1	0	0	0	0	0	2	71961,5989	-0,0400000028	1,55141187	-0,00011107911461695202	-0,03998769103134567	6,20373758E-005	0,056282870492101536	0,036646364286534534
1	0	0	0	0	0	2	73191,6232	-0,0400000028	1,55070615	-0,00011107928710265293	-0,039987752986714592	6,20092542E-005	0,042620110069429888	0,050309124709206182
1	0	0	0	0	0	2	74421,6475	-0,0400000028	1,54971433	-0,00011107908626273274	-0,03998768073418528	6,19694838E-005	0,028957299706732659	0,063971935071903411
1	0	0	0	0	0	2	75651,6718	-0,0400000028	1,54818845	-0,00011107998309201664	-0,039988003686955482	6,19089624E-005	0,015294536546508077	0,077634698232127974
1	0	0	0	0	0	2	76881,6961	-0,0400000028	1,5444119	-0,00011107975996078717	-0,039987923270001786	6,17578262E-005	0,001631726416296863	0,091297508362339213
1	0	0	0	0	0	2	78111,7204	-0,0400000028	1,4656198	-0,00011108002478857008	-0,039988018548395859	5,8607231E-005	-0,012031098362493829	0,10496033314112992
1	0	0	0	0	0	2	78672,2395	-0,0400000028	1,19996583	-4,2294001991757088E-005	-0,039988035379582093	4,79842747E-005	-0,018257241162320368	0,11118647594095645