Folder: thesis/Experimentelles/Ausgewaehlte_Daten/LTO/PEIS

Note: README.md
# thesis

Zusammenfassung
---------------
Es konnten die Festkörperelektrolytkeramiken LATP, LAGP, LTO und LLTO hergestellt,
mit XRD und MAS-NMR charakterisiert und zu Elektrodensuspensionen weiterverarbeitet
werden. Aus den Daten der MAS-NMR konnten dabei gegenüber der XRD keine Mehrinfor-
mationen gewonnen werden. Die mit den Suspensionen gegossenen und gestanzten Elektro-
denproben wurden mittels REM und EDX untersucht und als Kathode in Testzellen verbaut.
Mit diesen wurden Ladekennlinien erstellt und eine zyklischer Voltametrie durchgeführt. Aus
den Ladekennlinien konnten die Kapazitäten und der Grad der Lithiuminsertation in die
Materialen bestimmt werden. Die zyklische Voltametrie lieferte nicht-reaktive Spannungsbe-
reiche der Materialien.

Für ein noch besseres Verständnis der Lithiumbewegung und -insertation wurde eine in-situ
NMR-Testzelle konzipiert, konstruiert, gebaut und getestet. Für den Test kam dabei eine
Lithium-Schwefel-Zelle zum Einsatz, für welche ein Di?usionskoe?zient sowie ein Spektrum
vor und nach einer 90 minütigen Ladezeit aufgenommen worden ist.

Abstract
--------
The all solid state electrolyte ceramics LATP, LAGP, LTO, and LLTO were successfully
synthesized and characterized by using XRD. MAS-NMR spectroscopy were not able to ge-
nerate additional information. All powders were processed to electrode slurries, casted on
aluminum foils and punched to electrode samples. Those samples were studied by SEM and
EDX and then build into battery test cells. The cells were analyzed by measuring the charge
curves as well as cyclic voltammetry. With the charge curves capacities and the amount of
lithium insertion were calculated. The cyclic voltammetry was able to detect non-reactive
voltage regions.

To be able to better understand lithium movement and insertion a novel in-situ NMR sample
cell was designed, constructed, built and tested. Therefore, a lithium-sulfur-cell was built into
the in-situ sample cell. With this setting a diffusion coeffcient as well as a NMR spectrum
before and after 90 minutes of charging were measured.

File: LTO_Korrosion_04_PEIS_C02.mpt
EC-Lab ASCII FILE
Nb header lines : 62

Potentio Electrochemical Impedance Spectroscopy

Run on channel : 2 (SN 6986)
Grouped channel(s) : 2
User :
CE vs. WE compliance from -10 V to 10 V
Electrode connection : standard
Ewe ctrl range : min = 0,00 V, max = 5,00 V
Acquisition started on : 09.04.2015 14:14:19
Saved on :
	File : LTO_Korrosion_04_PEIS_C02.mpr
	Directory : C:\Gielisch\AlteZelle\150904_LTO_Korrosion\
	Host : 192.168.0.2
Device : VMP3 (SN 0324)
Address : 192.168.0.1
EC-Lab for windows v10.33 (software)
Internet server v10.33 (firmware)
Command interpretor v10.32 (firmware)
Electrode material :
Initial state :
Electrolyte :
Comments :
Electrode surface area : 0,001 cm²
Characteristic mass : 0,001 g
Equivalent Weight : 0,000 g/eq.
Density : 0,000 g/cm3
Multi Sine          0
E (V)               0,0000
vs.                 Eoc
tE (h:m:s)          0:00:0,0000
record              0
dI                  0,000
unit dI             mA
dt (s)              0,000
fi                  1,000
unit fi             MHz
ff                  1,000
unit ff             Hz
Sel Nd              1
Nd                  6
Nt                  51
Log                 1
Va (mV)             10,0
pw                  0,10
Na                  2
E range min (V)     0,000
E range max (V)     5,000
I Range             Auto
Bandwidth           5
corr                0
nc cycles           0
goto Ns'            0
nr cycles           0
inc. cycle          0

Number of loops : 1
Loop 0 from point number 0 to 36

freq/Hz	Re(Z)/Ohm	-Im(Z)/Ohm	|Z|/Ohm	Phase(Z)/deg	time/s	<Ewe>/V	<I>/mA	Cs/µF	Cp/µF	cycle number	I Range	|Ewe|/V	|I|/A	Re(Y)/Ohm-1	Im(Y)/Ohm-1	|Y|/Ohm-1	Phase(Y)/deg
1000024,25	14,7694979	-2,94058442	15,0593863	11,2602568	4284,8835	3,13876843	0,0392545238	-0,0541222654	-0,00206361525	1	10	0,000642612809	4,26719125E-005	0,0651255175	-0,0129663916	0,066403769	-11,2602568
681286,5	13,1786556	-1,99266696	13,328454	8,59822655	4286,1155	3,13919616	0,0302670188	-0,117234543	-0,00262038736	1	10	0,00211085891	0,000158372379	0,074184224	-0,0112169608	0,0750274584	-8,59822655
464160,125	12,974514	-1,16697085	13,0268888	5,13954306	4287,3475	3,13938642	0,0281519871	-0,293827415	-0,00235792994	1	10	0,00614943495	0,000472057058	0,0764556676	-0,00687667634	0,0767643005	-5,13954306
316223,094	12,9084482	-0,44265452	12,9160357	1,96400857	4287,6615	3,13926005	0,0277420338	-1,13700318	-0,00133546651	1	10	0,0103174495	0,000798809284	0,0773776621	-0,002653423	0,0774231404	-1,96400857
215441,859	12,8970442	0,172459617	12,8981972	-0,76611501	4288,0775	3,13915086	0,0283607058	4,28353834	0,00076580717	1	10	0,0101424977	0,00078635005	0,0775232837	0,0010366434	0,0775302127	0,76611501
146777,328	12,9543753	0,80148977	12,979146	-3,54038811	4288,4935	3,13910818	0,0276637673	1,35289216	0,0051590167	1	10	0,0101429829	0,000781483075	0,0768996254	0,00475779502	0,07704667	3,54038811
100024,406	13,0673208	1,50657654	13,153883	-6,57678986	4288,8075	3,13925505	0,0401042923	1,05614352	0,0138547085	1	10	0,0109332474	0,000831180252	0,0755228847	0,00870729424	0,0760231763	6,57678986
68127,4297	13,2712717	2,36446261	13,480257	-10,102047	4289,1215	3,13911343	0,0280942302	0,988019884	0,0303972475	1	10	0,0107578682	0,00079804624	0,0730325058	0,0130117619	0,0741825625	10,102047
46411,125	13,6139708	3,48903537	14,0539522	-14,3745775	4289,4355	3,13910246	0,0273879692	0,982862294	0,0605768226	1	10	0,0104141086	0,000741009251	0,0689267665	0,0176647883	0,0711543635	14,3745775
31628,4121	14,2317829	4,95192862	15,0686846	-19,1852684	4289,7495	3,13910055	0,0270823594	1,01617467	0,109740376	1	10	0,0103152422	0,000684548286	0,062677063	0,0218083933	0,0663627908	19,1852684
21545,4082	15,3258114	6,79052544	16,7628078	-23,8970642	4290,0635	3,13909817	0,0264730044	1,08783245	0,178515211	1	10	0,0101797041	0,000607279188	0,0545418598	0,0241662804	0,059655875	23,8970642
14672,8496	17,1443329	8,90377712	19,3185253	-27,4447594	4290,2755	3,13909745	0,0260947198	1,21823585	0,258780777	1	10	0,010459723	0,000541434856	0,0459380597	0,0238575768	0,0517637841	27,4447594
10015,2705	19,8215256	10,9395924	22,6399555	-28,8945103	4290,5277	3,13913369	0,0286756214	1,45263433	0,339162201	1	10	0,0104278885	0,000460596697	0,0386710502	0,021342732	0,0441696979	28,8945103
6856,00244	23,2657127	12,5158749	26,4185638	-28,2781925	4290,8771	3,13914299	0,0272910614	1,85476089	0,416286141	1	10	0,0103418864	0,000391462847	0,0333348066	0,0179325826	0,0378521718	28,2781925
4642,42725	27,1632099	13,4097595	30,2929306	-26,2743378	4291,3283	3,13914299	0,0271205511	2,5565486	0,500971973	1	10	0,00962908752	0,000317865837	0,0296004619	0,0146129671	0,0330110006	26,2743378
3160,05566	30,8249779	13,8384676	33,7887917	-24,1770687	4291,7793	3,13913774	0,0265820082	3,63946366	0,610475302	1	10	0,00992697105	0,000293794787	0,0269996077	0,0121211186	0,0295956135	24,1770687
2152,93286	34,2237854	14,2616243	37,0764275	-22,6223087	4292,4758	3,13913941	0,0242188275	5,18347073	0,76694262	1	11	0,0103414133	0,000278921507	0,024896156	0,0103746438	0,0269713141	22,6223087
1468,58972	37,773037	14,9366808	40,6190453	-21,5754433	4292,9268	3,13913536	0,0238239057	7,25547028	0,981102407	1	11	0,0103014456	0,000253611215	0,0228940435	0,00905304402	0,0246189926	21,5754433
999,040405	41,8405266	15,6538	44,6729355	-20,5123348	4293,3778	3,13913846	0,0234225485	10,1769419	1,24959099	1	11	0,0102561815	0,000229583777	0,0209656414	0,00784387719	0,0223849174	20,5123348
681,089661	46,4285049	15,999445	49,1079254	-19,0141525	4293,8283	3,13913298	0,0230749063	14,6053143	1,55030656	1	11	0,0102142897	0,000207996767	0,0192522518	0,00663440162	0,0203633122	19,0141525
464,553894	51,3435555	15,3856459	53,5992432	-16,681406	4294,2798	3,13913465	0,0227358397	22,2673378	1,83477342	1	11	0,0101916473	0,000190145365	0,0178718138	0,00535548013	0,0186569802	16,681406
316,315765	55,7850151	13,820076	57,471405	-13,9142065	4294,7288	3,13913989	0,0223438088	36,4073334	2,1052618	1	11	0,0101779168	0,000177095324	0,0168893877	0,00418414548	0,0173999574	13,9142065
215,344498	59,25383	11,6277437	60,3839455	-11,1024246	4295,1793	3,13913465	0,0221045222	63,5610237	2,35688734	1	11	0,0101692853	0,000168410421	0,0162507519	0,00318898517	0,0165606942	11,1024246
146,737289	61,6610222	9,39523315	62,3726883	-8,66347027	4295,6262	3,13913703	0,021712305	115,444183	2,61937857	1	11	0,0101647535	0,000162968019	0,0158497281	0,00241500838	0,0160326585	8,66347027
99,9040375	63,1921921	7,6019969	63,6478081	-6,85969639	4296,0778	3,13913417	0,0214051306	209,560486	2,98949528	1	11	0,0101562161	0,000159568983	0,015598991	0,00187655282	0,0157114603	6,85969639
68,1888962	64,1893158	6,3253932	64,5002213	-5,62791538	4296,5399	3,13913822	0,0210690517	368,993683	3,54871869	1	11	0,0101568159	0,000157469476	0,0154290907	0,00152042543	0,0155038228	5,62791538
46,3802681	64,8918076	5,60656929	65,1335602	-4,93801928	4296,9787	3,13913989	0,0209025964	612,053894	4,53496981	1	11	0,0101566613	0,000155935923	0,0152960839	0,0013215621	0,0153530687	4,93801928
31,5869217	65,4045715	5,46863556	65,6327972	-4,77952242	4297,4086	3,13913679	0,0203866325	921,369507	6,39661169	1	11	0,0101550361	0,000154725029	0,0151833035	0,00126951304	0,0152362846	4,77952242
21,5220375	65,6732559	6,0578618	65,9520569	-5,27018929	4297,8305	3,13915825	0,0205561649	1220,72375	10,2991037	1	11	0,0101128686	0,000153336674	0,0150984321	0,00139271631	0,0151625294	5,27018929
14,6851501	66,3667755	7,04488373	66,7396393	-6,05929995	4298,2909	3,13914013	0,0198885743	1538,39526	17,1414623	1	11	0,0101550212	0,000152158769	0,0148998881	0,00158163451	0,0149835991	6,05929995
9,9904108	66,8480072	8,9936018	67,4502869	-7,6624527	4298,7418	3,13914537	0,0201856755	1771,34497	31,4921875	1	11	0,0101595381	0,000150622611	0,0146933515	0,00197681505	0,0148257334	7,6624527
6,81718969	67,5086899	12,0292139	68,5720444	-10,1033602	4299,0813	3,1391418	0,0187888518	1940,78516	59,7252235	1	11	0,0101576662	0,000148131294	0,0143570593	0,00255825045	0,0145832021	10,1033602
4,63925123	68,6971893	16,3834038	70,6237869	-13,4137526	4299,5662	3,13914084	0,0201945342	2093,95874	112,687149	1	11	0,0101554701	0,000143796744	0,0137732662	0,00328474864	0,0141595351	13,4137526
3,16039586	69,2519913	22,2536659	72,7397003	-17,8144627	4300,6211	3,13914442	0,0188725945	2262,96094	211,805481	1	12	0,0101628331	0,000139715077	0,0130884815	0,00420589652	0,0137476511	17,8144627
2,1522038	70,5067902	31,6329956	77,277771	-24,1634731	4301,6264	3,13914609	0,0181627031	2337,74121	391,712891	1	12	0,010158997	0,000131460794	0,0118065169	0,00529701449	0,0129403323	24,1634731
1,46630979	72,5637512	43,5390701	84,6235733	-30,9642315	4303,0879	3,13914466	0,0178460423	2492,95972	659,919312	1	12	0,0101581458	0,000120039193	0,0101329759	0,00607990008	0,0118170381	30,9642315
0,998529792	75,0206833	63,5109901	98,2941971	-40,250576	4305,2205	3,13914061	0,0169597771	2509,63306	1047,73682	1	12	0,0101601779	0,000103364982	0,00776471058	0,00657344656	0,0101735406	40,250576

File: LTO_Korrosion_07_PEIS_C02.mpt
EC-Lab ASCII FILE
Nb header lines : 62

Potentio Electrochemical Impedance Spectroscopy

Run on channel : 2 (SN 6986)
Grouped channel(s) : 2
User :
CE vs. WE compliance from -10 V to 10 V
Electrode connection : standard
Ewe ctrl range : min = 0,00 V, max = 5,00 V
Acquisition started on : 09.04.2015 14:14:19
Saved on :
	File : LTO_Korrosion_07_PEIS_C02.mpr
	Directory : C:\Gielisch\AlteZelle\150904_LTO_Korrosion\
	Host : 192.168.0.2
Device : VMP3 (SN 0324)
Address : 192.168.0.1
EC-Lab for windows v10.33 (software)
Internet server v10.33 (firmware)
Command interpretor v10.32 (firmware)
Electrode material :
Initial state :
Electrolyte :
Comments :
Electrode surface area : 0,001 cm²
Characteristic mass : 0,001 g
Equivalent Weight : 0,000 g/eq.
Density : 0,000 g/cm3
Multi Sine          0
E (V)               0,0000
vs.                 Eoc
tE (h:m:s)          0:00:0,0000
record              0
dI                  0,000
unit dI             mA
dt (s)              0,000
fi                  1,000
unit fi             MHz
ff                  1,000
unit ff             Hz
Sel Nd              1
Nd                  6
Nt                  51
Log                 1
Va (mV)             10,0
pw                  0,10
Na                  2
E range min (V)     0,000
E range max (V)     5,000
I Range             Auto
Bandwidth           5
corr                0
nc cycles           0
goto Ns'            0
nr cycles           0
inc. cycle          0

Number of loops : 1
Loop 0 from point number 0 to 36

freq/Hz	Re(Z)/Ohm	-Im(Z)/Ohm	|Z|/Ohm	Phase(Z)/deg	time/s	<Ewe>/V	<I>/mA	Cs/µF	Cp/µF	cycle number	I Range	|Ewe|/V	|I|/A	Re(Y)/Ohm-1	Im(Y)/Ohm-1	|Y|/Ohm-1	Phase(Y)/deg
1000024,25	17,0275078	-3,41087365	17,3657742	11,3273125	212450,4378	1,50191808	-0,0171955526	-0,0466599166	-0,00180005981	1	10	0,000774849264	4,46193335E-005	0,0564628504	-0,0113103837	0,0575845316	-11,3273125
681286,5	14,7588329	-2,07982731	14,9046583	8,02134991	212451,6698	1,50250244	-0,0109175211	-0,112321548	-0,00218712469	1	10	0,00239175279	0,000160470154	0,0664366931	-0,0093623139	0,067093119	-8,02134991
464160,125	14,5485783	-1,11406195	14,5911703	4,37889671	212452,9018	1,50268269	-0,0102429371	-0,307781845	-0,00179424358	1	10	0,00692210905	0,000474403962	0,0683345422	-0,0052327388	0,0685345978	-4,37889671
316223,094	14,4826822	-0,336051255	14,4865808	1,32923341	212453,2158	1,50254345	-0,0126039479	-1,49768686	-0,000805935531	1	10	0,0105558978	0,000728667306	0,069010824	-0,00160130381	0,0690293983	-1,32923341
215441,859	14,4810696	0,331029594	14,4848528	-1,30952311	212453,6318	1,50245488	-0,0126188546	2,23163533	0,00116554403	1	10	0,0101875197	0,000703322294	0,0690196082	0,00157775171	0,0690376386	1,30952311
146777,328	14,5620499	1,02744019	14,5982513	-4,03587341	212454,0478	1,5024246	-0,0128909219	1,05536973	0,0052277646	1	10	0,0101520447	0,000695428811	0,06833148	0,00482119666	0,0685013533	4,03587341
100024,406	14,6800833	1,83313167	14,7940941	-7,11779642	212454,3618	1,50229764	-0,0190757774	0,868001521	0,0133269588	1	10	0,0108945686	0,000736413349	0,0670736283	0,00837561954	0,0675945431	7,11779642
68127,4297	14,9477425	2,81337881	15,2101974	-10,6591864	212454,6758	1,50240278	-0,0124772321	0,830366731	0,0284090452	1	10	0,0107004289	0,000703503611	0,0646109208	0,0121606989	0,0657453686	10,6591864
46411,125	15,3588161	4,10035801	15,8967342	-14,9476929	212454,9898	1,50241828	-0,0123281544	0,836327314	0,0556421615	1	10	0,0104536256	0,00065759581	0,0607773736	0,0162257925	0,0629060045	14,9476929
31628,4121	16,0943241	5,74829865	17,0900612	-19,6548538	212455,3038	1,50239897	-0,0123244291	0,875393689	0,0990363955	1	10	0,0102077639	0,000597292383	0,0551043004	0,0196812246	0,0585135408	19,6548538
21545,4082	17,3555527	7,84118366	19,0446682	-24,3133011	212455,6178	1,50240731	-0,0118045239	0,942071319	0,159698263	1	10	0,0101658329	0,000533788931	0,047851067	0,0216189604	0,0525081344	24,3133011
14672,8496	19,4335327	10,2799864	21,9850025	-27,878027	212455,8298	1,50240505	-0,011709488	1,05514741	0,230698705	1	10	0,0104116313	0,00047357881	0,0402067266	0,0212686285	0,0454855524	27,878027
10015,2705	22,6846962	12,737709	26,0162392	-29,3146935	212456,0821	1,50244164	-0,00947705377	1,24757349	0,299060971	1	10	0,0103846276	0,000399159442	0,0335153639	0,0188192483	0,0384375304	29,3146935
6856,00244	27,0631123	14,513217	30,7090454	-28,2034588	212456,4325	1,50244081	-0,010103181	1,59950459	0,357256562	1	10	0,0103082461	0,000335674587	0,0286975671	0,0153897312	0,0325636938	28,2034588
4642,42725	32,1475105	15,2443228	35,5788116	-25,3702679	212456,8837	1,50244105	-0,0100407563	2,24888325	0,412857592	1	10	0,0096066352	0,000270010001	0,0253959522	0,0120427385	0,0281066168	25,3702679
3160,05566	37,0273552	14,607111	39,8044319	-21,5289917	212457,5797	1,50244772	-0,0115731703	3,44795108	0,464330137	1	11	0,0102201784	0,000256759813	0,0233700611	0,00921937451	0,0251228306	21,5289917
2152,93286	41,301403	13,0981598	43,3286018	-17,5956917	212458,0312	1,5024426	-0,0114651853	5,64390087	0,515763462	1	11	0,010220876	0,000235892134	0,0219996348	0,00697687455	0,0230794437	17,5956917
1468,58972	44,6936798	11,0823364	46,047184	-13,9262934	212458,4822	1,50244641	-0,0113071231	9,77886295	0,566428185	1	11	0,0102018258	0,000221551571	0,0210785139	0,00522667123	0,0217168555	13,9262934
999,040405	47,2115593	8,96581936	48,0553551	-10,75284	212458,9332	1,50244308	-0,0111762909	17,7683506	0,618505418	1	11	0,0101861944	0,000211967941	0,020443948	0,00388245471	0,0208093356	10,75284
681,089661	48,9067154	6,99980974	49,4051018	-8,14518356	212459,3837	1,50243866	-0,0110685844	33,3833275	0,67012912	1	11	0,0101743247	0,000205936725	0,0200366396	0,00286775897	0,0202408247	8,14518356
464,553894	50,0421257	5,36117601	50,3284874	-6,11495972	212459,8352	1,50244164	-0,0109035289	63,9033966	0,725130796	1	11	0,0101684248	0,000202041134	0,0197564103	0,00211656839	0,0198694635	6,11495972
316,315765	50,7741051	4,09879494	50,9392776	-4,61525631	212460,2841	1,50244141	-0,0108373193	122,756096	0,79478544	1	11	0,0101651633	0,000199554517	0,0195675623	0,00157961284	0,0196312163	4,61525631
215,344498	51,2768402	3,14099383	51,3729515	-3,50530767	212460,7347	1,50244009	-0,010689049	235,298538	0,87959832	1	11	0,0101623544	0,000197815272	0,0194290802	0,00119014003	0,0194654968	3,50530767
146,737289	51,6255684	2,47984147	51,6850929	-2,75009704	212461,1816	1,50242651	-0,0105783585	437,37677	1,00686896	1	11	0,0101603428	0,000196581692	0,019325655	0,000928310561	0,0193479378	2,75009704
99,9040375	51,8821793	2,03232241	51,9219704	-2,24323654	212461,6332	1,50242615	-0,0104994671	783,870789	1,2009567	1	11	0,0101602599	0,000195683257	0,0192449093	0,000753859291	0,0192596689	2,24323654
68,1888962	52,1230621	1,76318681	52,152874	-1,93742752	212462,0953	1,50243139	-0,0102935676	1323,75659	1,51303267	1	11	0,0101622036	0,000194854147	0,0191634372	0,000648248941	0,0191743989	1,93742752
46,3802681	52,324604	1,63614929	52,3501778	-1,7910105	212462,5340	1,50242507	-0,0103682615	2097,31616	2,04867697	1	11	0,0101590594	0,000194059699	0,0190928001	0,000597016886	0,0191021319	1,7910105
31,5869217	52,5331917	1,650509	52,5591125	-1,79954994	212462,9639	1,50242972	-0,0100437449	3052,77588	3,01047277	1	11	0,0101584112	0,000193275933	0,0190168116	0,000597477891	0,0190261956	1,79954994
21,5220375	52,7562675	1,77014732	52,7859573	-1,92174208	212463,3858	1,50243104	-0,0102046048	4177,60498	4,69796085	1	11	0,0101591917	0,000192460124	0,0189337786	0,000635290926	0,018944433	1,92174208
14,6851501	53,0487938	1,98959279	53,0860901	-2,14786911	212463,8463	1,5024339	-0,010026494	5447,25293	7,65146303	1	11	0,0101598306	0,000191384039	0,018824093	0,000705996819	0,0188373271	2,14786911
9,9904108	53,3640327	2,4195497	53,4188576	-2,59603882	212464,2972	1,50243652	-0,0103194909	6584,18848	13,5077229	1	11	0,0101597589	0,000190190491	0,0187007692	0,000847901392	0,0187199805	2,59603882
6,81718969	53,7933121	2,96367884	53,8748894	-3,15345526	212464,6366	1,5024364	-0,00912539847	7877,4126	23,8381805	1	11	0,0101621849	0,000188625636	0,018533418	0,00102107669	0,0185615234	3,15345526
4,63925123	54,288147	3,62718439	54,4091835	-3,82245398	212465,1215	1,50243723	-0,00992373005	9458,07227	42,0336838	1	11	0,0101583907	0,000186703604	0,0183383636	0,00122525147	0,0183792505	3,82245398
3,16039586	54,8725815	4,654634	55,0696449	-4,8485775	212465,8155	1,50243688	-0,0103376089	10819,1494	77,2929001	1	11	0,0101626813	0,000184542339	0,018093843	0,00153483241	0,0181588233	4,8485775
2,1522038	55,6449127	5,85386133	55,9519806	-6,00544405	212467,3298	1,50243616	-0,00913319085	12632,6455	138,276459	1	12	0,0101619149	0,000181618496	0,0177743826	0,00186987047	0,0178724676	6,00544405
1,46630979	56,6994553	7,56998301	57,2025604	-7,60462666	212468,7912	1,50243998	-0,00777699566	14338,3613	251,10675	1	12	0,0101719927	0,000177824084	0,0173279811	0,00231347047	0,017481735	7,60462666
0,998529792	57,7962532	9,46152973	58,5655823	-9,29713345	212470,9230	1,50243747	-0,00801777653	16846,0371	439,678802	1	12	0,0101604322	0,000173488108	0,0168505758	0,00275852205	0,0170748755	9,29713345