Folder: thesis/Experimentelles/Ausgewaehlte_Daten/LATP/CV

Note: README.md
# thesis

Zusammenfassung
---------------
Es konnten die Festkörperelektrolytkeramiken LATP, LAGP, LTO und LLTO hergestellt,
mit XRD und MAS-NMR charakterisiert und zu Elektrodensuspensionen weiterverarbeitet
werden. Aus den Daten der MAS-NMR konnten dabei gegenüber der XRD keine Mehrinfor-
mationen gewonnen werden. Die mit den Suspensionen gegossenen und gestanzten Elektro-
denproben wurden mittels REM und EDX untersucht und als Kathode in Testzellen verbaut.
Mit diesen wurden Ladekennlinien erstellt und eine zyklischer Voltametrie durchgeführt. Aus
den Ladekennlinien konnten die Kapazitäten und der Grad der Lithiuminsertation in die
Materialen bestimmt werden. Die zyklische Voltametrie lieferte nicht-reaktive Spannungsbe-
reiche der Materialien.

Für ein noch besseres Verständnis der Lithiumbewegung und -insertation wurde eine in-situ
NMR-Testzelle konzipiert, konstruiert, gebaut und getestet. Für den Test kam dabei eine
Lithium-Schwefel-Zelle zum Einsatz, für welche ein Di?usionskoe?zient sowie ein Spektrum
vor und nach einer 90 minütigen Ladezeit aufgenommen worden ist.

Abstract
--------
The all solid state electrolyte ceramics LATP, LAGP, LTO, and LLTO were successfully
synthesized and characterized by using XRD. MAS-NMR spectroscopy were not able to ge-
nerate additional information. All powders were processed to electrode slurries, casted on
aluminum foils and punched to electrode samples. Those samples were studied by SEM and
EDX and then build into battery test cells. The cells were analyzed by measuring the charge
curves as well as cyclic voltammetry. With the charge curves capacities and the amount of
lithium insertion were calculated. The cyclic voltammetry was able to detect non-reactive
voltage regions.

To be able to better understand lithium movement and insertion a novel in-situ NMR sample
cell was designed, constructed, built and tested. Therefore, a lithium-sulfur-cell was built into
the in-situ sample cell. With this setting a diffusion coeffcient as well as a NMR spectrum
before and after 90 minutes of charging were measured.

File: LATP_Korrosion_02_CV_C02.txt
EC-Lab ASCII FILE
Nb header lines : 69

Cyclic Voltammetry

Run on channel : 2 (SN 6986)
Grouped channel(s) : 2
User :
CE vs. WE compliance from -10 V to 10 V
Electrode connection : standard
Ewe ctrl range : min = 0,00 V, max = 5,00 V
Acquisition started on : 09/02/2015 11:42:26
Saved on :
	File : LATP_Korrosion_02_CV_C02.mpr
	Directory : C:\Hupfer\Stabilitätstest Folie gegen Li\
	Host : 192.168.0.2
Device : VMP3 (SN 0324)
Address : 192.168.0.1
EC-Lab for windows v10.33 (software)
Internet server v10.33 (firmware)
Command interpretor v10.32 (firmware)
Electrode material : LATP
Initial state :
Electrolyte : LP-30
Comments :
Mass of active material : 0,001 mg
 at x = 0,000
Molecular weight of active material (at x = 0) : 0,001 g/mol
Atomic weight of intercalated ion : 0,001 g/mol
Acquisition started at : xo = 0,000
Number of e- transfered per intercalated ion : 1
for DX = 1, DQ = 26,801 mA.h
Battery capacity : 0,000 A.h
Reference electrode : Li+/Li (-3,020 V)
Electrode surface area : 0,001 cm²
Characteristic mass : 0,001 g
Ei (V)              0,000
vs.                 Eoc
dE/dt               10,000
dE/dt unit          mV/s
E1 (V)              4,000
vs.                 Ref
Step percent        50
N                   10
E range min (V)     0,000
E range max (V)     5,000
I Range             Auto
Bandwidth           5
E2 (V)              1,200
vs.                 Ref
nc cycles           0
Reverse Scan        1
Ef (V)              0,000
vs.                 Eoc

Modify on : 09/02/2015 11:45
Electrode material :
Electrolyte :

Number of loops : 7
Loop 0 from point number 0 to 5598
Loop 1 from point number 5599 to 11198
Loop 2 from point number 11199 to 16798
Loop 3 from point number 16799 to 22397
Loop 4 from point number 22398 to 27997
Loop 5 from point number 27998 to 33597
Loop 6 from point number 33598 to 39197

mode	ox/red	error	control changes	counter inc.	time/s	control/V	Ewe/V	<I>/mA	cycle number	(Q-Qo)/C	P/W
2	1	0	0	0	163,3116	2,46410131	2,46385574	-0,0014299086760729552	1	0	3,52308871E-006
2	1	0	1	0	199,5540	2,82652473	2,82676363	0,31691445920754368	1	0,00845485833	0,00089584227
2	1	0	0	0	235,7614	3,18859911	3,18883991	0,18206165125593632	1	0,0175521672	0,00058056548
2	1	0	1	0	271,9688	3,55067348	3,55088115	0,12627639295533254	1	0,0231000949	0,000448392471
2	1	0	1	0	308,1764	3,91274762	3,91306877	0,10380544911863066	1	0,0271240491	0,000406197854
2	0	0	1	0	344,3844	3,725209	3,72548604	-0,014911079891371014	1	0,0279582143	5,55510196E-005
2	0	0	0	0	380,5918	3,36313462	3,36327171	-0,022207463067456128	1	0,0272689108	7,46897349E-005
2	0	0	1	0	416,7992	3,00106049	3,00145316	-0,030726203932082003	1	0,0262600109	9,22232648E-005
2	0	0	0	0	453,0066	2,63898611	2,63935041	-0,094947013564200986	1	0,0246848594	0,000250598445
2	0	0	0	0	489,2542	2,27651191	2,27677035	-0,62478942596526106	1	0,0140977949	0,00142250198
2	0	0	1	0	525,5016	1,91403747	1,91430688	-1,0069743652862523	1	-0,0184608977	0,00192765798
2	0	0	0	0	561,7090	1,55196309	1,55210137	-0,77629516611772685	1	-0,0514098592	0,0012048888
2	1	0	0	1	597,7570	1,20859265	1,20884192	-0,57824140331811507	1	-0,0757343918	0,00069900247
2	1	0	1	1	634,0044	1,57106686	1,57148802	-0,19956170112170541	1	-0,0871392116	0,00031360882
2	1	0	0	1	670,2118	1,93314123	1,93351543	-0,086436809894318349	1	-0,0921925083	0,000167126913
2	1	0	1	1	706,5393	2,29641676	2,29662514	0,011945926546708726	1	-0,0935792103	2,74353151E-005
2	1	0	1	0	742,7439	2,65769029	2,65808606	0,48731176316897517	2	0,00573371816	0,00129531662
2	1	0	1	0	778,9514	3,01976466	3,02030849	0,95747390306658176	2	0,0333282985	0,00289186649
2	1	0	0	0	815,1588	3,3818388	3,38230491	0,89780148560250688	2	0,0683613643	0,00303663826
2	1	0	1	0	851,3662	3,74391294	3,74431944	0,54975413289610842	2	0,0948668346	0,00205845502
2	0	0	1	0	887,4342	3,89544415	3,89603925	0,1672058236026377	2	0,108393915	0,000651440467
2	0	0	0	0	923,6817	3,53296947	3,53343296	0,041818776521868608	2	0,111712635	0,000147763843
2	0	0	0	0	959,9292	3,17049503	3,17087102	-0,0060783444663414784	2	0,112241805	1,92736461E-005
2	0	0	1	0	996,1766	2,80802131	2,80863023	-0,028859406981306765	2	0,111607976	8,10554047E-005
2	0	0	0	0	1032,4240	2,44554663	2,44607306	-0,27231313864252106	2	0,107566506	0,000666097854
2	0	0	0	0	1068,6316	2,08347178	2,08396983	-0,88110187615286861	2	0,0842649266	0,00183618977
2	0	0	1	0	1104,8390	1,72139788	1,72188008	-0,81171002790883763	2	0,0524610355	0,00139766734
2	0	0	0	0	1141,0464	1,35932362	1,35991931	-0,60461986872057062	2	0,0270516966	0,000822234259
2	1	0	1	1	1177,1342	1,40163219	1,40205276	-0,26708475500345318	2	0,0100360028	0,000374466908
2	1	0	1	1	1213,3418	1,76370656	1,76415169	-0,12846173640961434	2	0,0031870415	0,000226625983
2	1	0	0	1	1249,5892	2,12618089	2,12658858	-0,033644388809248141	2	0,000306803471	7,15477727E-005
2	1	0	0	0	1285,8418	2,48855567	2,48904347	0,15408304825218221	3	0,000318797509	0,000383519393
2	1	0	1	0	1322,0492	2,85062957	2,85119128	0,78215392196068659	3	0,0178552326	0,00223007053
2	1	0	0	0	1358,2567	3,21270299	3,21331573	0,95873703693730765	3	0,051186759	0,00308072474
2	1	0	0	0	1394,4642	3,57477832	3,5751214	0,68517889234202829	3	0,0817447081	0,0024495977
2	1	0	1	0	1430,6716	3,93685269	3,93736315	0,3751445848632713	3	0,100560419	0,00147708051
2	0	0	0	0	1466,7494	3,7024045	3,70296407	0,078366200198178189	3	0,107179917	0,000290187221
2	0	0	1	0	1502,9968	3,33993006	3,34038472	0,011452531784824582	3	0,10860537	3,8255861E-005
2	0	0	1	0	1539,2744	2,97715569	2,97756529	-0,017335306380927117	3	0,108401	5,16170076E-005
2	0	0	0	0	1575,4818	2,61508155	2,61545324	-0,097510588553699546	3	0,107000262	0,000255034392
2	0	0	1	0	1611,7292	2,25260663	2,25306487	-0,69877288600912909	3	0,0950176865	0,00157438067
2	0	0	0	0	1647,9366	1,89053249	1,89113104	-0,87090935627066918	3	0,0646403804	0,00164700369
2	0	0	0	0	1684,1442	1,52845836	1,52894342	-0,67543267355196864	3	0,0363401175	0,00103269832
2	1	0	1	1	1720,2420	1,23259759	1,2331847	-0,46274881106283949	3	0,0146506261	0,000570654753
2	1	0	0	1	1756,4494	1,59467185	1,59526122	-0,17798875748283382	3	0,00477126101	0,000283938571
2	1	0	1	1	1792,6568	1,95674622	1,95718646	-0,074406510891599667	3	0,00030195326	0,000145627419
2	1	0	1	1	1828,9844	2,32002091	2,32047796	0,020157421339751734	3	-0,000748872699	4,67748505E-005
2	1	0	0	0	1865,1512	2,68119502	2,68161988	0,50835044357787853	4	0,00653990731	0,0013632027
2	1	0	1	0	1901,3586	3,0432694	3,04382968	0,93713168523930074	4	0,0342155173	0,00285246922
2	1	0	0	0	1937,5660	3,40534353	3,40585279	0,82867247790650022	4	0,0675524995	0,00282233651
2	1	0	0	0	1973,7736	3,76741815	3,76806402	0,49253595729103949	4	0,0913937613	0,00185590703
2	0	0	1	0	2009,8913	3,8714397	3,87182808	0,14576366666221539	4	0,103386641	0,000564371876
2	0	0	0	0	2046,1387	3,50896454	3,5095377	0,034076258635010342	4	0,106239229	0,000119591918
2	0	0	1	0	2082,3861	3,14649057	3,14686036	-0,0072335477819218125	4	0,106623977	2,27629644E-005
2	0	0	1	0	2118,6337	2,78401613	2,78461504	-0,029684536922205626	4	0,105969109	8,2660008E-005
2	0	0	0	0	2154,8811	2,42154169	2,42198205	-0,29026210697850765	4	0,101600803	0,000703009602
2	0	0	1	0	2191,0885	2,05946732	2,05997252	-0,85269006590048589	4	0,07816495	0,00175651815
2	0	0	0	0	2227,2959	1,69739294	1,69786465	-0,76690872199833395	4	0,0477718674	0,00130210724
[...]
2	0	0	0	0	2734,2765	2,22850204	2,22892523	-0,70647620278651942	5	0,0906204209	0,00157468265
2	0	0	1	0	2770,4839	1,86642778	1,86686206	-0,84040871483307994	5	0,0608489849	0,0015689272
2	0	0	0	0	2806,6913	1,5043534	1,50485682	-0,6481241523805577	5	0,0336906388	0,000975334027
2	1	0	1	1	2842,7791	1,25660253	1,25728464	-0,40231089631992314	5	0,0129430303	0,000505819335
2	1	0	0	1	2878,9866	1,61867607	1,61916459	-0,16593803353271754	5	0,00387383392	0,000268680975
2	1	0	0	1	2915,1941	1,98075116	1,98113942	-0,066435637254337318	5	-0,000242517111	0,000131618261
2	1	0	1	1	2951,5215	2,34402561	2,3445375	0,029337176884938477	5	-0,00102729339	6,87821084E-005
2	1	0	0	0	2987,6523	2,70449948	2,7049675	0,53854441497888826	6	0,00758404424	0,00145674509
2	1	0	1	0	3023,8597	3,06657386	3,06697297	0,92853938995136384	6	0,0357054509	0,00284780515
2	1	0	1	0	3060,0673	3,42864799	3,42917371	0,78527917975076634	6	0,0680817217	0,00269285869
2	1	0	0	0	3096,2747	3,79072237	3,79118395	0,46217797130898221	6	0,0905042216	0,0017522017
2	0	0	1	0	3132,3625	3,84843445	3,84888053	0,13243451340261947	6	0,1015037	0,000509724603
2	0	0	0	0	3168,6100	3,48596001	3,48651862	0,029847638604587155	6	0,104080819	0,000104064347
2	0	0	0	0	3204,8575	3,1234858	3,12386036	-0,0078096389447131725	6	0,104390867	2,43962222E-005
2	0	0	1	0	3241,1049	2,7610116	2,76155663	-0,031768581911886861	6	0,103714436	8,77307393E-005
2	0	0	0	0	3277,3523	2,39853668	2,39908838	-0,32113185942311072	6	0,098858282	0,000770423736
2	0	0	0	0	3313,5599	2,03646231	2,03688264	-0,84101136705315046	6	0,0748186409	0,00171304145
2	0	0	1	0	3349,7673	1,67438817	1,67481506	-0,74000437999212915	6	0,0452492014	0,00123937044
2	0	0	0	0	3385,9747	1,31231403	1,31279671	-0,56815541218276122	6	0,021952657	0,000745872559
2	1	0	0	1	3422,0627	1,4486419	1,4490999	-0,23073512260560752	6	0,00716521125	0,00033435825
2	1	0	1	1	3458,2701	1,81071615	1,81116295	-0,10897483361057091	6	0,00124513032	0,000197371177
2	1	0	0	1	3494,5176	2,17319036	2,17362142	-0,020094174489199283	6	-0,0010470862	4,36771297E-005
2	1	0	1	0	3530,7525	2,53456497	2,53499556	0,21578983872852957	7	0,00110725174	0,000547026284
2	1	0	0	0	3566,9599	2,89663935	2,89721465	0,80508247100644147	7	0,0205925666	0,00233249669
2	1	0	1	0	3603,1673	3,25871348	3,25928235	0,90086414761565696	7	0,0532186367	0,00293617067
2	1	0	0	0	3639,3747	3,62078762	3,62141633	0,60187908075749875	7	0,0808552653	0,00217965478
2	1	0	1	0	3675,5822	3,98286223	3,98345304	0,33865046283455322	7	0,0974244699	0,00134899816
2	0	0	1	0	3711,6601	3,65639496	3,65696335	0,063855819102307814	7	0,102584422	0,000233518396
2	0	0	0	0	3747,9075	3,29392052	3,29432988	0,0068325621304447526	7	0,103682064	2,25087133E-005
2	0	0	0	0	3784,1951	2,93104625	2,93155503	-0,018391122735381376	7	0,103410989	5,39145876E-005
2	0	0	1	0	3820,4425	2,56857204	2,56916285	-0,12243084775076984	7	0,101683035	0,000314544799
2	0	0	0	0	3856,6499	2,20649743	2,20705509	-0,7184957804641225	7	0,0877698064	0,0015857598
2	0	0	1	0	3892,8573	1,84442317	1,84512091	-0,81927123679607309	7	0,0582848191	0,00151165447
2	0	0	1	0	3929,0649	1,4823488	1,48288	-0,62913854634044416	7	0,0319355279	0,000932936964
2	1	0	0	1	3965,1528	1,27860725	1,27905238	-0,36269860356798131	7	0,0119516673	0,000463910517
2	1	0	0	1	4001,3603	1,64068127	1,64131105	-0,15645205626195248	7	0,00348004699	0,000256786501
2	1	0	1	1	4037,5677	2,00275564	2,00324988	-0,059812305219195456	7	-0,000353067211	0,000119818993
2	1	0	0	1	4073,8951	2,36602998	2,36649704	0,038692123946492186	7	-0,000905740832	9,15647979E-005
2	1	0	1	1	4083,9271	2,46640182	2,46688032	0,11586372833698944	7	-0,000187527199	0,000285821938

File: LATP_Korrosion_08_CV_C02.txt
EC-Lab ASCII FILE
Nb header lines : 68

Cyclic Voltammetry

Run on channel : 2 (SN 6986)
Grouped channel(s) : 2
User :
CE vs. WE compliance from -10 V to 10 V
Electrode connection : standard
Ewe ctrl range : min = 0,00 V, max = 5,00 V
Acquisition started on : 09/02/2015 11:42:26
Saved on :
	File : LATP_Korrosion_08_CV_C02.mpr
	Directory : C:\Hupfer\Stabilitätstest Folie gegen Li\
	Host : 192.168.0.2
Device : VMP3 (SN 0324)
Address : 192.168.0.1
EC-Lab for windows v10.33 (software)
Internet server v10.33 (firmware)
Command interpretor v10.32 (firmware)
Electrode material : LATP
Initial state :
Electrolyte : LP-30
Comments :
Mass of active material : 0,001 mg
 at x = 0,000
Molecular weight of active material (at x = 0) : 0,001 g/mol
Atomic weight of intercalated ion : 0,001 g/mol
Acquisition started at : xo = 0,000
Number of e- transfered per intercalated ion : 1
for DX = 1, DQ = 26,801 mA.h
Battery capacity : 0,000 A.h
Reference electrode : Li+/Li (-3,020 V)
Electrode surface area : 0,001 cm²
Characteristic mass : 0,001 g
Ei (V)              0,000
vs.                 Eoc
dE/dt               10,000
dE/dt unit          mV/s
E1 (V)              4,000
vs.                 Ref
Step percent        50
N                   10
E range min (V)     0,000
E range max (V)     5,000
I Range             Auto
Bandwidth           5
E2 (V)              0,500
vs.                 Ref
nc cycles           0
Reverse Scan        1
Ef (V)              0,000
vs.                 Eoc

Modify on : 09/02/2015 11:45
Electrode material :
Electrolyte :

Modify on : 09/02/2015 17:09
dE/dt               1,000

Number of loops : 3
Loop 0 from point number 0 to 6916
Loop 1 from point number 6917 to 13817
Loop 2 from point number 13818 to 20712

mode	ox/red	error	control changes	counter inc.	time/s	control/V	Ewe/V	<I>/mA	cycle number	(Q-Qo)/C	P/W
2	1	0	0	0	75661,8434	1,51770663	1,51827168	-0,018127616494894029	1	0	2,75226466E-005
2	1	0	0	0	75884,4392	1,74030173	1,74093783	-0,014059004235429066	1	-0,00466369884	2,44758521E-005
2	1	0	1	0	76108,2852	1,96414804	1,96484196	-0,0062953291703947558	1	-0,00683523016	1,23693271E-005
2	1	0	0	0	76337,0323	2,19289446	2,19354272	0,0015781213985941734	1	-0,00756321615	3,46167667E-006
2	1	0	0	0	76563,9790	2,41984129	2,42056751	0,064912624449976602	1	-0,00296189403	0,000157125396
2	1	0	0	0	76787,1251	2,64298677	2,64368844	0,21091546781778979	1	0,031312082	0,000557594758
2	1	0	0	0	77010,1710	2,86603308	2,86663485	0,19861014801995046	1	0,0802697539	0,000569342752
2	1	0	0	0	77233,2170	3,0890789	3,08970666	0,12517338938296058	1	0,116864279	0,000386749045
2	1	0	1	0	77456,2630	3,31212473	3,31276536	0,072142918024122867	1	0,138788506	0,000238992565
2	1	0	0	0	77679,4090	3,53527045	3,53588605	0,03659737413359232	1	0,150514901	0,000129404143
2	1	0	1	0	77902,8552	3,75871611	3,75940728	0,020605258775190566	1	0,156992093	7,74635628E-005
2	1	0	1	0	78125,9010	3,98176217	3,98236799	0,019867856905747216	1	0,161343589	7,91211205E-005
2	0	0	1	0	78354,1480	3,79002237	3,78968787	0,00099344371919838502	1	0,162536323	3,76484172E-006
2	0	0	1	0	78600,7985	3,54337215	3,54314017	-0,0010419187650787787	1	0,162552297	3,69166423E-006
2	0	0	1	0	78843,2482	3,30092239	3,30068946	-0,0016640795662369485	1	0,162223607	5,49260994E-006
2	0	0	0	0	79082,2472	3,06192327	3,06165528	-0,0014691032674954448	1	0,161721513	4,49788786E-006
2	0	0	1	0	79313,3445	2,83082604	2,83063412	-0,0023837173936671584	1	0,161096171	6,7474316E-006
2	0	0	0	0	79537,5905	2,60657954	2,60640907	-0,017025667706006275	1	0,159711033	4,43758545E-005
2	0	0	0	0	79760,6364	2,38353395	2,38337493	-0,056557452285939002	1	0,152436599	0,000134797607
2	0	0	1	0	79983,8820	2,16028833	2,16012621	-0,20814506023233914	1	0,118730232	0,000449619605
2	0	0	1	0	80206,9277	1,93724227	1,93709946	-0,17418489674009229	1	0,0752164572	0,000337413483
2	0	0	1	0	80429,9734	1,71419644	1,7147727	-0,10976336474626237	1	0,0441430211	0,000188219215
2	0	0	0	0	80653,0191	1,49115062	1,49175453	-0,076497252133136179	1	0,0238937046	0,000114115122
2	0	0	1	0	80876,0649	1,26810479	1,26883852	-0,069791691713015693	1	0,00820134673	8,8554385E-005
2	0	0	0	0	81099,1105	1,04505908	1,04568696	-0,2028010586033111	1	-0,0175292827	0,000212066429
2	0	0	1	0	81322,1564	0,822013378	0,822499514	-0,34727224891165318	1	-0,0795053542	0,000285631249
2	0	0	0	0	81545,2021	0,598967552	0,599352181	-0,47218953674749376	1	-0,168799639	0,00028300783
2	1	0	0	1	81766,7482	0,622572422	0,623073757	-0,1127914816376716	1	-0,25547266	7,02774123E-005
2	1	0	1	1	81990,6942	0,846518338	0,847040057	0,22631550348881779	1	-0,240111709	0,000191698302
2	1	0	1	1	82213,7401	1,06956422	1,07022297	0,20561088359698944	1	-0,186950818	0,000220049493
2	1	0	0	1	82436,7859	1,29260981	1,29304981	0,06303637337031209	1	-0,158112377	8,15091698E-005
2	1	0	0	1	82659,9319	1,51575565	1,51635325	0,017321091449250122	1	-0,15034312	2,62648937E-005
2	1	0	0	0	82880,5710	1,73670125	1,73717713	0,0096820180239922944	2	0,00269579096	1,68193801E-005
2	1	0	0	0	83103,6170	1,95974684	1,96047592	0,013037777597945618	2	0,00499188667	2,55602499E-005
2	1	0	0	0	83326,6628	2,18279266	2,18346286	0,01565169155308585	2	0,00794512033	3,41748855E-005
2	1	0	0	0	83549,7088	2,40583849	2,40650368	0,051364608007986381	2	0,0137488311	0,000123609119
2	1	0	0	0	83772,8547	2,62898421	2,62968683	0,15174305519351766	2	0,0376979858	0,000399036711
2	1	0	0	0	83995,9008	2,85203028	2,85276723	0,18725225982615389	2	0,0772153437	0,000534187129
2	1	0	0	0	84218,9467	3,0750761	3,07564759	0,15765639417743315	2	0,116436288	0,000484895514
2	1	0	0	0	84441,9926	3,29812169	3,29880857	0,11864694471216986	2	0,147242114	0,000391393551
2	1	0	1	0	84665,0388	3,52116728	3,52187085	0,087522799973300595	2	0,170102626	0,000308243994
2	1	0	1	0	84888,0847	3,7442131	3,74507189	0,068717732965941632	2	0,187569857	0,000257352862
2	1	0	0	0	85111,3307	3,9674592	3,968117	0,057034092273334003	2	0,201578334	0,000226317949
2	0	0	1	0	85333,9763	3,80992723	3,80964661	0,01581568636044673	2	0,208376721	6,02521759E-005
2	0	0	0	0	85558,1224	3,58578062	3,58551216	0,0070070832282710938	2	0,210713267	2,51239817E-005
2	0	0	0	0	85810,1239	3,3337791	3,33347464	-0,00030920401936980307	2	0,211631596	1,03072375E-006
2	0	0	0	0	86061,8256	3,0820775	3,08182287	-0,0012468151158530998	2	0,211555496	3,84246323E-006
2	0	0	0	0	86306,7758	2,83712673	2,83698201	-0,0027090346348547267	2	0,210967973	7,68548216E-006
2	0	0	0	0	86549,2254	2,59467697	2,59448719	-0,010714249988218072	2	0,209677488	2,77979852E-005
2	0	0	0	0	86772,2712	2,37163162	2,37147427	-0,044338070631557094	2	0,20430328	0,000105146595
2	0	0	0	0	86995,4170	2,14848566	2,14832425	-0,14283856390734195	2	0,180968881	0,000306863541
2	0	0	1	0	87218,4628	1,92543995	1,92533958	-0,14966401141952202	2	0,147453696	0,000288154057
2	0	0	1	0	87441,5083	1,70239377	1,70287216	-0,11867145781876931	2	0,117233917	0,000202082316
2	0	0	0	0	87664,5541	1,47934806	1,47984481	-0,090405728796099981	2	0,0940233171	0,000133786452
2	0	0	1	0	87887,5998	1,25630248	1,25667989	-0,07731800166216329	2	0,0759527385	9,71639747E-005
2	0	0	0	0	88110,6456	1,03325653	1,03367925	-0,19596283108359386	2	0,0498037972	0,000202562718
2	0	0	1	0	88333,6913	0,810211003	0,810847938	-0,32508749153699059	2	-0,0165406521	0,000263596536
2	0	0	0	0	88556,7371	0,587165117	0,587611437	-0,43392137399131456	2	-0,0984683037	0,000254977174
[...]
2	1	0	1	0	91231,6623	3,0879786	3,08860779	0,14584906470972109	3	0,10416431	0,000450470543
2	1	0	1	0	91454,7084	3,31102443	3,31161261	0,11568297732063427	3	0,133600637	0,000383097213
2	1	0	1	0	91677,7545	3,53407049	3,53476429	0,09541360753285088	3	0,157138124	0,000337264617
2	1	0	1	0	91900,8005	3,75711608	3,757725	0,087920059935246541	3	0,177639484	0,000330379407
2	1	0	1	0	92123,8463	3,98016143	3,98086333	0,082961177198421773	3	0,196651325	0,000330257113
2	0	0	1	0	92345,3921	3,79832435	3,79802799	0,021363225375400307	3	0,205685437	8,11381251E-005
2	0	0	1	0	92568,4376	3,57527852	3,57504129	0,0089772993144104922	3	0,208800912	3,20942163E-005
2	0	0	0	0	92809,3871	3,33432937	3,33401299	0,0021596172013474899	3	0,210105225	7,2001917E-006
2	0	0	1	0	93063,0391	3,08067679	3,08038807	-0,00029001517238724102	3	0,210216016	8,93359299E-007
2	0	0	0	0	93325,2928	2,81842327	2,81820655	-0,0015834636070138371	3	0,209558725	4,46252761E-006
2	0	0	0	0	93567,7427	2,57597351	2,57574463	-0,0083321621746553779	3	0,208310246	2,14615211E-005
2	0	0	0	0	93790,7883	2,35292768	2,35274649	-0,042849506410877094	3	0,203598857	0,000100814024
2	0	0	0	0	94013,9341	2,12978172	2,12961125	-0,12472913913815219	3	0,183225319	0,000265624578
2	0	0	1	0	94236,9797	1,9067359	1,90662837	-0,13899286356689	3	0,152852207	0,000265007751
2	0	0	0	0	94460,0255	1,68369019	1,68426418	-0,11606738994149192	3	0,124182716	0,000195488145
2	0	0	0	0	94683,0711	1,46064425	1,46116149	-0,09110571093119369	3	0,101169005	0,000133120164
2	0	0	0	0	94906,1169	1,23759866	1,23818767	-0,082983932358972058	3	0,0821489319	0,000102749684
2	0	0	0	0	95129,1625	1,01455283	1,01490235	-0,21501527202927706	3	0,0544852205	0,000218219502
2	0	0	0	0	95352,2084	0,791507125	0,792057514	-0,35933740863138566	3	-0,0122988289	0,000284615904
2	0	0	1	0	95575,2542	0,568461299	0,56889677	-0,44963589227779642	3	-0,102980413	0,000255796418
2	1	0	0	1	95797,4004	0,653678715	0,654343367	-0,043933370641328518	3	-0,17480123	2,87475104E-005
2	1	0	0	1	96020,9463	0,877224743	0,877722204	0,21153505724301437	3	-0,151189268	0,000185669021
2	1	0	0	1	96243,9923	1,10027039	1,10077167	0,19472392648942982	3	-0,101960994	0,000214346583
2	1	0	0	1	96467,0382	1,32331622	1,3237766	0,05816960951857408	3	-0,0743551031	7,70035695E-005
2	1	0	0	0	96687,9586	1,54466164	1,54517066	0,015352406761972819	4	0,000430661457	2,37220884E-005
2	1	0	1	0	96911,0043	1,76770759	1,76824653	0,0082953850733404339	4	0,00281783449	1,4668286E-005
2	1	0	1	0	97134,3502	1,99105334	1,99168336	0,0095814530237566118	4	0,00475630118	1,90832197E-005
2	1	0	1	0	97357,5961	2,2142992	2,21501756	0,012132192098091235	4	0,00704148458	2,68730182E-005
2	1	0	1	0	97580,6422	2,43734503	2,43798256	0,043980572989271494	4	0,0122403186	0,000107223867
2	1	0	0	0	97803,8882	2,66059089	2,66121864	0,11357044921378368	4	0,0298353098	0,0003022358
2	1	0	0	0	98026,9341	2,88363647	2,88420177	0,14458470305089978	4	0,0595842525	0,00041701147
2	1	0	0	0	98249,9800	3,1066823	3,10730004	0,13746195679779438	4	0,0912980512	0,000427135557
2	1	0	1	0	98473,0262	3,32972836	3,33035827	0,117369804740594	4	0,119781531	0,000390883506
2	1	0	1	0	98696,0722	3,55277443	3,55343485	0,10538408103291747	4	0,144318596	0,000374475465
2	1	0	1	0	98919,1182	3,77582002	3,7765553	0,10761459717431077	4	0,167787254	0,000406412466
2	1	0	1	0	99142,1642	3,99886584	3,99954224	0,10662432367269091	4	0,192006648	0,000426448474
2	0	0	0	0	99364,0096	3,77932048	3,77904105	0,026080925580312662	4	0,202700943	9,85608858E-005
2	0	0	0	0	99587,0553	3,55627418	3,55602312	0,01213124153422923	4	0,20667845	4,31389744E-005
2	0	0	1	0	99626,0631	3,51726675	3,51701069	0,010396376856810718	4	0,207122624	3,65641681E-005