Folder: thesis/Experimentelles/Ausgewaehlte_Daten/LATP/PEIS (part 2)

File: LATP_Korrosion_07_PEIS_C02.mpt
EC-Lab ASCII FILE
Nb header lines : 73

Potentio Electrochemical Impedance Spectroscopy

Run on channel : 2 (SN 6986)
Grouped channel(s) : 2
User :
CE vs. WE compliance from -10 V to 10 V
Electrode connection : standard
Ewe ctrl range : min = 0,00 V, max = 5,00 V
Acquisition started on : 09/02/2015 11:42:26
Saved on :
	File : LATP_Korrosion_07_PEIS_C02.mpr
	Directory : C:\Hupfer\Stabilitätstest Folie gegen Li\
	Host : 192.168.0.2
Device : VMP3 (SN 0324)
Address : 192.168.0.1
EC-Lab for windows v10.33 (software)
Internet server v10.33 (firmware)
Command interpretor v10.32 (firmware)
Electrode material : LATP
Initial state :
Electrolyte : LP-30
Comments :
Mass of active material : 0,001 mg
 at x = 0,000
Molecular weight of active material (at x = 0) : 0,001 g/mol
Atomic weight of intercalated ion : 0,001 g/mol
Acquisition started at : xo = 0,000
Number of e- transfered per intercalated ion : 1
for DX = 1, DQ = 26,801 mA.h
Battery capacity : 0,000 A.h
Reference electrode : Li+/Li (-3,020 V)
Electrode surface area : 0,001 cm²
Characteristic mass : 0,001 g
Multi Sine          0
E (V)               0,0000
vs.                 Eoc
tE (h:m:s)          0:00:0,0000
record              0
dI                  0,000
unit dI             mA
dt (s)              0,000
fi                  1,000
unit fi             MHz
ff                  1,000
unit ff             Hz
Sel Nd              1
Nd                  6
Nt                  51
Log                 1
Va (mV)             10,0
pw                  0,10
Na                  2
E range min (V)     0,000
E range max (V)     5,000
I Range             Auto
Bandwidth           5
corr                0
nc cycles           0
goto Ns'            0
nr cycles           0
inc. cycle          0

Modify on : 09/02/2015 11:45
Electrode material :
Electrolyte :

Number of loops : 1
Loop 0 from point number 0 to 36

freq/Hz	Re(Z)/Ohm	-Im(Z)/Ohm	|Z|/Ohm	Phase(Z)/deg	time/s	<Ewe>/V	<I>/mA	Cs/µF	Cp/µF	cycle number	I Range	|Ewe|/V	|I|/A	Re(Y)/Ohm-1	Im(Y)/Ohm-1	|Y|/Ohm-1	Phase(Y)/deg
1000024,25	13,0599709	-1,47269702	13,1427422	6,43373442	75641,0932	1,50813246	-0,0520126149	-0,108067773	-0,00135690998	1	10	0,000505271077	3,84448758E-005	0,0756084323	-0,00852592383	0,0760876238	-6,43373442
681286,5	10,9967937	-0,41449067	11,0046024	2,15856814	75642,3252	1,50879562	-0,0410889573	-0,563605964	-0,000799569767	1	10	0,00179375743	0,000163000659	0,090806596	-0,00342267798	0,0908710733	-2,15856814
464160,125	11,1023293	0,559297442	11,1164083	-2,88392782	75643,5572	1,50898027	-0,0415082276	0,613069177	0,00155190867	1	10	0,00541174831	0,000486825244	0,0898431838	0,00452599255	0,0899571106	2,88392782
316223,094	11,3700209	1,57651389	11,478797	-7,89403296	75643,8712	1,50887024	-0,0415249877	0,319248438	0,00602187309	1	10	0,0102578187	0,000893631834	0,0862916037	0,0119647896	0,087117143	7,89403296
215441,859	11,7477207	2,58262348	12,0282536	-12,3986959	75644,2872	1,50873435	-0,0540195517	0,286041439	0,0131869996	1	10	0,0101503851	0,000843878544	0,0811985806	0,0178507287	0,0831375867	12,3986959
146777,328	12,2888546	3,71972895	12,8394833	-16,8406048	75644,7032	1,5087043	-0,0436158031	0,291507602	0,0244668107	1	10	0,0101432903	0,000790007645	0,0745446235	0,0225640051	0,077884756	16,8406048
100024,406	12,9992409	5,15262651	13,9831982	-21,6223373	75645,1192	1,50888634	-0,031374678	0,308805823	0,0419304743	1	10	0,0100461524	0,000718444528	0,0664821342	0,0263521262	0,0715143979	21,6223373
68127,4297	13,8803272	6,78823709	15,4513311	-26,0611553	75645,4332	1,50871313	-0,03828815	0,344144732	0,066423744	1	10	0,0106538609	0,000689510896	0,0581390448	0,0284331627	0,0647193417	26,0611553
46411,125	15,0822821	8,95389271	17,5398808	-30,6963177	75645,7472	1,50871575	-0,0424362347	0,3829889	0,0998060033	1	10	0,010403703	0,000593145611	0,049024567	0,0291043967	0,0570129305	30,6963177
31628,4121	16,7566223	11,7105198	20,4431076	-34,9481316	75646,0612	1,50870693	-0,0412771553	0,429701209	0,14100194	1	10	0,0100763235	0,000492895895	0,040095225	0,0280209184	0,048916243	34,9481316
21545,4082	19,2333889	15,1844997	24,5049438	-38,2906151	75646,2732	1,5087086	-0,0414038748	0,486479878	0,186792076	1	10	0,0104296403	0,000425613718	0,032029368	0,0252867546	0,0408080928	38,2906151
14672,8496	22,8346596	19,4628372	30,0037289	-40,4421997	75646,4852	1,5086987	-0,0429151542	0,557313442	0,23450999	1	10	0,0103886388	0,000346244924	0,025365537	0,0216199979	0,0333291888	40,4421997
10015,2705	28,0293236	24,2485733	37,0625992	-40,8635559	75646,7374	1,50876486	-0,0364377312	0,65534687	0,280525208	1	10	0,0102638872	0,000276933832	0,0204052012	0,0176528338	0,026981378	40,8635559
6856,00244	35,1889076	28,8451004	45,5005379	-39,3422089	75647,4488	1,50874114	-0,04084564	0,804779828	0,323435843	1	11	0,0102167437	0,00022454116	0,016997017	0,0139328195	0,0219777618	39,3422089
4642,42725	44,6049957	32,5374527	55,2113342	-36,1091652	75647,9000	1,50874674	-0,0414252989	1,0536381	0,365933448	1	11	0,0091096554	0,000164996105	0,0146327866	0,010673997	0,0181122236	36,1091652
3160,05566	55,0991592	34,1781158	64,8387299	-31,8114071	75648,3511	1,5087508	-0,0408396758	1,47359216	0,409453452	1	11	0,00913649052	0,000140910997	0,0131061757	0,00812978577	0,0154228806	31,8114071
2152,93286	65,5497665	33,8385048	73,7686691	-27,3039665	75648,8026	1,50874496	-0,0401961431	2,18463278	0,459681362	1	11	0,00911860447	0,000123610807	0,0120455679	0,00621823734	0,0135558909	27,3039665
1468,58972	75,0795822	31,9262829	81,5857315	-23,0367775	75649,2535	1,50873923	-0,0420279875	3,39446497	0,519804001	1	11	0,00910026114	0,000111542307	0,0112795932	0,00479645049	0,0122570451	23,0367775
999,040405	83,3610001	29,2405186	88,3406143	-19,3293285	75649,7045	1,50874352	-0,041556973	5,44818735	0,596899688	1	11	0,00908367895	0,00010282563	0,0106817419	0,00374683226	0,0113198217	19,3293285
681,089661	90,3326263	26,2570591	94,0713348	-16,2076073	75650,1551	1,50874233	-0,0437696576	8,89958477	0,693341672	1	11	0,00907665677	9,64869541E-005	0,010207749	0,002967095	0,0106302304	16,2076073
464,553894	96,2627029	23,283062	99,0384216	-13,5969992	75650,6065	1,5087446	-0,0429594815	14,714447	0,813236177	1	11	0,00906478148	9,15279306E-005	0,00981410313	0,00237373728	0,0100970911	13,5969992
316,315765	101,457565	20,6653233	103,540779	-11,5127697	75651,0555	1,50874341	-0,0429389663	24,3476524	0,969881415	1	11	0,00906472746	8,75474143E-005	0,0094637135	0,00192761084	0,00965803023	11,5127697
215,344498	105,814735	18,2154026	107,371124	-9,76741123	75651,5061	1,50874233	-0,0420467332	40,5739746	1,1677506	1	11	0,00906062312	8,43860325E-005	0,00917848758	0,00158002437	0,00931349117	9,76741123
146,737289	109,555412	16,0036678	110,71814	-8,31088734	75651,9530	1,50874114	-0,0403675437	67,7735291	1,41599464	1	11	0,00905843358	8,18152621E-005	0,00893709343	0,00130551541	0,00903194398	8,31088734
99,9040375	112,3722	14,5160351	113,305901	-7,3606019	75652,4046	1,50874698	-0,0411502048	109,746101	1,80127513	1	11	0,00905621704	7,99271438E-005	0,00875293743	0,00113068835	0,00882566534	7,3606019
68,1888962	115,320534	12,7365646	116,021744	-6,30248356	75652,8667	1,50874448	-0,043318782	183,254303	2,20841146	1	11	0,00905809179	7,8072364E-005	0,00856698211	0,000946179498	0,00861907378	6,30248356
46,3802681	117,471001	12,6044197	118,145279	-6,12429953	75653,3054	1,50874412	-0,0405380055	272,247559	3,09868169	1	11	0,00905727036	7,66621451E-005	0,00841584895	0,000903004955	0,00846415572	6,12429953
31,5869217	119,812508	12,3782368	120,450226	-5,8984952	75653,7353	1,50873971	-0,0410639495	407,055908	4,29889059	1	11	0,00905345194	7,51634288E-005	0,00825822912	0,000853185717	0,00830218475	5,8984952
21,5220375	121,554543	14,5835037	122,426247	-6,84136009	75654,1572	1,50875378	-0,0400848985	507,078156	7,19531107	1	11	0,00906757824	7,40656396E-005	0,00811002403	0,000972999958	0,00816818327	6,84136009
14,6851501	124,953972	15,8068781	125,949799	-7,20971298	75654,6177	1,50874484	-0,0407259092	685,639221	10,7992325	1	11	0,00905988179	7,19324817E-005	0,00787689537	0,000996439951	0,00793967117	7,20971298
9,9904108	127,781746	17,6238937	128,991379	-7,85279655	75655,3136	1,50874686	-0,0419581644	903,930298	16,87397	1	12	0,00905773602	7,02196994E-005	0,00767975673	0,0010592062	0,00775245624	7,85279655
6,81718969	129,722534	18,9090652	131,09343	-8,29333782	75655,6530	1,50874257	-0,0437222309	1234,65222	25,6875648	1	12	0,00905534904	6,90755405E-005	0,00754837645	0,00110029266	0,00762814749	8,29333782
4,63925123	133,372253	24,8485546	135,667267	-10,5537624	75656,1379	1,50874758	-0,0410777479	1380,61035	46,3151665	1	12	0,00905886106	6,67726345E-005	0,00724628381	0,00135005347	0,00737097487	10,5537624
3,16039586	137,921158	33,8814125	142,02182	-13,8018513	75656,8318	1,50874591	-0,0422558747	1486,33643	84,5921402	1	12	0,00905697793	6,37717385E-005	0,00683786906	0,001679776	0,00704117166	13,8018513
2,1522038	143,613129	40,1715813	149,125748	-15,6274109	75657,8371	1,50873828	-0,0414572991	1840,84741	133,582748	1	12	0,00905497838	6,07204202E-005	0,00645786431	0,00180639885	0,00670575025	15,6274109
1,46630979	145,394653	47,8206253	153,056915	-18,2061501	75659,2987	1,50873756	-0,0399129614	2269,75586	221,56633	1	12	0,00905758701	5,91779026E-005	0,00620643981	0,00204131193	0,0065335175	18,2061501
0,998529792	146,419968	67,5234146	161,239624	-24,7573853	75661,4304	1,50874436	-0,0398678519	2360,50366	413,971039	1	12	0,00905580539	5,6163648E-005	0,00563192321	0,00259723258	0,00620194944	24,7573853