Folder: thesis/Experimentelles/Rohdaten/Batteriemessungen/AlteZelle/Studenten_Batterietests/S vs Li GCPL 200µm/ECLab-Export

Note: README.md
# thesis

Zusammenfassung
---------------
Es konnten die Festkörperelektrolytkeramiken LATP, LAGP, LTO und LLTO hergestellt,
mit XRD und MAS-NMR charakterisiert und zu Elektrodensuspensionen weiterverarbeitet
werden. Aus den Daten der MAS-NMR konnten dabei gegenüber der XRD keine Mehrinfor-
mationen gewonnen werden. Die mit den Suspensionen gegossenen und gestanzten Elektro-
denproben wurden mittels REM und EDX untersucht und als Kathode in Testzellen verbaut.
Mit diesen wurden Ladekennlinien erstellt und eine zyklischer Voltametrie durchgeführt. Aus
den Ladekennlinien konnten die Kapazitäten und der Grad der Lithiuminsertation in die
Materialen bestimmt werden. Die zyklische Voltametrie lieferte nicht-reaktive Spannungsbe-
reiche der Materialien.

Für ein noch besseres Verständnis der Lithiumbewegung und -insertation wurde eine in-situ
NMR-Testzelle konzipiert, konstruiert, gebaut und getestet. Für den Test kam dabei eine
Lithium-Schwefel-Zelle zum Einsatz, für welche ein Di?usionskoe?zient sowie ein Spektrum
vor und nach einer 90 minütigen Ladezeit aufgenommen worden ist.

Abstract
--------
The all solid state electrolyte ceramics LATP, LAGP, LTO, and LLTO were successfully
synthesized and characterized by using XRD. MAS-NMR spectroscopy were not able to ge-
nerate additional information. All powders were processed to electrode slurries, casted on
aluminum foils and punched to electrode samples. Those samples were studied by SEM and
EDX and then build into battery test cells. The cells were analyzed by measuring the charge
curves as well as cyclic voltammetry. With the charge curves capacities and the amount of
lithium insertion were calculated. The cyclic voltammetry was able to detect non-reactive
voltage regions.

To be able to better understand lithium movement and insertion a novel in-situ NMR sample
cell was designed, constructed, built and tested. Therefore, a lithium-sulfur-cell was built into
the in-situ sample cell. With this setting a diffusion coeffcient as well as a NMR spectrum
before and after 90 minutes of charging were measured.

File: S vs Li GCPL 200µm_02_GCPL_C05.mpt
EC-Lab ASCII FILE
Nb header lines : 83

Galvanostatic Cycling with Potential Limitation

Run on channel : 5 (SN 5436)
Grouped channel(s) : 5
User :
CE vs. WE compliance from -10 V to 10 V
Electrode connection : standard
Ewe ctrl range : min = 0,00 V, max = 5,00 V
Acquisition started on : 01.23.2015 15:07:20
Saved on :
	File : S vs Li GCPL 200µm_02_GCPL_C05.mpr
	Directory : C:\Hupfer\Studenten Batterietests\S vs Li GCPL 200µm\
	Host : 192.168.0.2
Device : VMP3 (SN 0324)
Address : 192.168.0.1
EC-Lab for windows v10.33 (software)
Internet server v10.33 (firmware)
Command interpretor v10.32 (firmware)
Electrode material : S vs Li
Initial state : charged
Electrolyte : LP30
Comments : 200µm
Mass of active material : 0,001 mg
 at x = 0,000
Molecular weight of active material (at x = 0) : 0,001 g/mol
Atomic weight of intercalated ion : 0,001 g/mol
Acquisition started at : xo = 0,000
Number of e- transfered per intercalated ion : 1
for DX = 1, DQ = 26,801 mA.h
Battery capacity : 0,000 A.h
Reference electrode : Li+/Li (-3,020 V)
Electrode surface area : 0,001 cm²
Characteristic mass : 0,001 g
Create one data file per loop
Ns                  0                   1                   2
Set I/C             I                   I                   I
Is                  0,000               -200,000            200,000
unit Is             mA                  µA                  µA
vs.                 <None>              <None>              <None>
N                   1                   1                   1
I sign              > 0                 > 0                 > 0
t1 (h:m:s)          0:00:0,0000         10:00:0,0000        10:00:0,0000
I Range             1 mA                1 mA                1 mA
Bandwidth           5                   5                   5
dE1 (mV)            0,00                0,00                0,00
dt1 (s)             0,0000              10,0000             10,0000
EM (V)              0,000               1,500               3,500
tM (h:m:s)          0:00:0,0000         0:00:0,0000         0:00:0,0000
Im                  0,000               0,000               0,000
unit Im             mA                  mA                  mA
E range min (V)     0,000               0,000               0,000
E range max (V)     5,000               5,000               5,000
dq                  0,000               1,000               1,000
unit dq             mA.h                mA.h                mA.h
dtq (s)             0,0000              120,0000            120,0000
dQM                 0,000               0,000               0,000
unit dQM            mA.h                mA.h                mA.h
dxM                 0,000               0,000               0,000
tR (h:m:s)          0:00:0,0000         0:00:0,0000         0:00:0,0000
dER/dt (mV/h)       0,0                 0,1                 0,1
dER (mV)            0,00                5,00                5,00
dtR (s)             1,0000              120,0000            120,0000
EL (V)              pass                4,200               4,200
goto Ns'            0                   0                   0
nc cycles           0                   0                   0

Number of loops : 11
Loop 0 from point number 0 to 4510
Loop 1 from point number 4511 to 8418
Loop 2 from point number 8419 to 11694
Loop 3 from point number 11695 to 12469
Loop 4 from point number 12470 to 12911
Loop 5 from point number 12912 to 13130
Loop 6 from point number 13131 to 13323
Loop 7 from point number 13324 to 13463
Loop 8 from point number 13464 to 13541
Loop 9 from point number 13542 to 13670
Loop 10 from point number 13671 to 13679

mode	ox/red	error	control changes	Ns changes	counter inc.	Ns	time/s	control/V/mA	Ewe/V	dq/mA.h	<I>/mA	P/W	(Q-Qo)/mA.h	x	Capacity/mA.h
1	0	0	1	1	0	1	3600,0009	-0,200000003	2,17947769	0	0	0	0	0	0
1	0	0	1	0	0	1	5920,0009	-0,200000003	2,13725328	-0,00055480373738292186	-0,1997293478760137	0,000426872197	-0,12871302508070443	0,0048024560222638451	0,12871302508070443
1	0	0	1	0	0	1	8240,0008	-0,200000003	2,06508851	-0,00055480559906694624	-0,19973001808227062	0,000412460155	-0,25742749422168106	0,0096049659243580045	0,25742749422168106
1	0	0	1	0	0	1	10560,0008	-0,200000003	1,90986502	-0,00055477760232985018	-0,19971993925679402	0,00038143812	-0,3861396022435719	0,014407387729924518	0,3861396022435719
1	0	0	1	0	0	1	12880,0008	-0,200000003	1,93529117	-0,00055478447218901574	-0,19972241240612355	0,000386521016	-0,51485027151767936	0,019209755853876816	0,51485027151767936
1	0	0	1	0	0	1	15200,0008	-0,200000003	1,95367038	-0,00055478144308427974	-0,19972132192840538	0,000390189642	-0,64356132588053555	0,024012138346008086	0,64356132588053555
1	0	0	1	0	0	1	17520,0007	-0,200000003	1,9154073	-0,00055479322220550643	-0,19972556241209834	0,000382555794	-0,77227248083097178	0,028814524591197203	0,77227248083097178
1	0	0	1	0	0	1	19840,0007	-0,200000003	1,88283896	-0,0005547914724093344	-0,19972493248546877	0,000376049895	-0,90098269676034355	0,033616875800247885	0,90098269676034355
1	0	0	1	0	0	1	22160,0007	-0,200000003	1,83834791	-0,00055478574925826656	-0,19972287215105942	0,00036716013	-1,0296934327720821	0,038419246414270925	1,0296934327720821
1	1	0	0	0	0	2	24460,2128	0,200000003	2,06777406	0,00055610224454601606	0,20019681046038733	0,000413961767	-1,0684346416477574	0,039864733005531693	0,044488959177562765
1	1	0	0	0	0	2	26780,2128	0,200000003	2,06007957	0,00055611035559988685	0,20019973043981616	0,000412427384	-0,93941604015169088	0,035050875516358829	0,17350756067362838
1	1	0	0	0	0	2	29100,2128	0,200000003	2,07352591	0,00055610783819771469	0,2001988241750232	0,000415117451	-0,81039772924425139	0,030237028869438336	0,30252587158106797
1	1	0	0	0	0	2	31420,2128	0,200000003	2,08331537	0,00055610799723201325	0,20019888142737136	0,000417077419	-0,68138028846784614	0,025423214688276637	0,43154331235747322
1	1	0	0	0	0	2	33740,2128	0,200000003	2,09693313	0,00055612555769085888	0,20020520039579792	0,000419816904	-0,55236143756279379	0,020609347893319174	0,56056216326252538
1	1	0	0	0	0	2	36060,2128	0,200000003	2,1213119	0,0005561153467728032	0,20020152446530477	0,000424689875	-0,42334295379776614	0,015795494796849664	0,68958064702755366
1	1	0	0	0	0	2	38380,2128	0,200000003	2,15511823	0,00055611196155846118	0,20020030578814394	0,000431455323	-0,29432463955660262	0,010981648025543446	0,81859896126871718
1	1	0	0	0	0	2	40700,2128	0,200000003	2,1661458	0,00055611474845972326	0,20020130907259635	0,000433665235	-0,1653071913606465	0,006167833567548329	0,94761640946467379
1	1	0	0	0	0	2	43020,2128	0,200000003	2,18448687	0,00055611019797954285	0,2001996708997345	0,00043733354	-0,036289073865963264	0,0013539941371178206	1,0766345269593578
1	1	0	0	0	0	2	45340,2128	0,200000003	2,21320796	0,00055610410881208038	0,2001974787994521	0,000443078665	0,092728739458945165	-0,0034598339443294285	1,2056523402842666
1	1	0	0	0	0	2	47660,2128	0,200000003	2,29699063	0,00055611338582800486	0,20020081852517869	0,00045985941	0,22174722549856288	-0,0082736871256669555	1,334670826323884
1	0	0	1	0	0	1	49960,8450	-0,200000003	2,10577059	-0,00055478333680993984	-0,19972200087956714	0,000420568715	0,20638201619085616	-0,0077003905076527885	0,071565386251120064
[...]
1	0	0	1	0	0	1	94009,0033	-0,200000003	1,85640359	-0,00055481675068537395	-0,19973008252252954	0,000370779628	0,063829509688291418	-0,0023815648261586637	0,34896987834819418
1	0	0	1	0	0	1	96329,0491	-0,200000003	1,87103069	-0,00055481398427238067	-0,19972908688464749	0,000373699237	-0,064888307873536192	0,0024210700100194467	0,47768769591002195
1	0	0	1	0	0	1	98649,0950	-0,200000003	1,87466848	-0,00055480577522019546	-0,1997261320632543	0,000374420284	-0,19360523489904323	0,0072236716190900992	0,60640462293552883
1	0	0	1	0	0	1	100969,1408	-0,200000003	1,86457419	-0,0005548133973090185	-0,19972887607290096	0,000372409297	-0,3223221178340007	0,012026271583083064	0,73512150587048691
1	0	0	1	0	0	1	103289,1867	-0,200000003	1,76256454	-0,00055481177940219642	-0,19972829363766419	0,000352033996	-0,45103912906969677	0,016828876334149091	0,8638385171061824
1	1	0	0	0	0	2	105590,2949	0,200000003	2,17599249	0,00055611829430527155	0,20019862896240298	0,000435630704	-0,45650090697817165	0,017032662611352784	0,061173800999110784
1	1	0	0	0	0	2	107910,3408	0,200000003	2,2141602	0,00055612923390997779	0,20020256714458851	0,000443280558	-0,32748123637885574	0,012218765232500262	0,19019347159842659
1	1	0	0	0	0	2	110230,3866	0,200000003	2,25659442	0,00055612751413881779	0,20020194805785261	0,000451774598	-0,19845884732710678	0,0074047664245324634	0,31921586065017549
1	1	0	0	0	0	2	112550,4325	0,200000003	2,30594206	0,00055613234746207795	0,20020368840205914	0,000461658114	-0,069436664353692954	0,002590775305624423	0,4482380436235895
1	1	0	0	0	0	2	114870,4783	0,200000003	2,31517935	0,00055612091720269779	0,20019957393260032	0,000463497912	0,059585123114857126	-0,0022232010564653894	0,57725983109213952
1	1	0	0	0	0	2	117190,5242	0,200000003	2,34578586	0,00055612997935215629	0,20020283624193699	0,000469632971	0,18860616558471117	-0,0070371496216521907	0,70628087356199373
1	1	0	0	0	0	2	119510,5700	0,200000003	2,47805929	0,00055613695845339027	0,20020534866873168	0,000496120716	0,31762886687168954	-0,011851160079536205	0,83530357484897203
1	0	0	1	0	0	1	121813,7151	-0,200000003	1,91483617	-0,00055480116906430982	-0,19972447324981539	0,000382439641	0,29351470039070688	-0,010951428106289085	0,076004356271527258
1	1	0	0	0	0	2	124120,6798	0,200000003	2,3012569	0,00055614408345354925	0,20020791347855197	0,000460729847	0,23995958500092506	-0,0089532147454778701	0,037261027400579725
1	1	0	0	0	0	2	126440,7256	0,200000003	2,30605626	0,0005561427644011047	0,20020743876860522	0,000461689604	0,36898322259559168	-0,013767260138260611	0,16628466499524634
1	0	0	1	0	0	1	128744,1615	-0,200000003	1,75205123	-0,00055477655437091994	-0,19971561222833558	0,000349911978	0,4326483826935799	-0,016142692860234688	0,032175150930670163
1	1	0	0	0	0	2	131049,4469	0,200000003	2,51561761	0,00055613944097359987	0,20020624176169709	0,000503642368	0,5136101305029079	-0,019163484525228365	0,10455343141048488
1	1	0	0	0	0	2	133345,0935	0,200000003	2,42023611	0,00055611476859036422	0,20020128536859904	0,000484534394	0,57473100279139469	-0,021443986448198598	0,010566263602255118
1	1	0	0	0	0	2	135634,7710	0,200000003	2,39191484	0,00055612749589979648	0,20020586719927779	0,000478875387	0,65720355518355866	-0,02452114826347625	0,02836258020625263
1	1	0	0	0	0	2	137926,2188	0,200000003	3,21035218	0,00055612826851672589	0,2002061453413289	0,000642732251	0,74937402210209805	-0,027960152308717728	0,055056926264882086
1	1	0	0	0	0	2	140059,6657	0,200000003	3,50003934	0,00019612459496243133	0,20020655344217472	0,00070073083	0,82461501794152243	-0,030767495026081472	0,0024206638612349827

File: S vs Li GCPL 200µm_02_GCPL_C05_loop2.mpt
EC-Lab ASCII FILE
Nb header lines : 3
mode	ox/red	error	control changes	Ns changes	counter inc.	Ns	time/s	control/V/mA	Ewe/V	dq/mA.h	<I>/mA	P/W	(Q-Qo)/mA.h	x	Capacity/mA.h
1	0	0	1	1	0	1	87718,88	-0,200000003	3,4704802	0	0	0	0	0	0
1	0	0	1	0	0	1	88268,89	-0,200000003	2,11866474	-0,00055479809745318355	-0,1997233678706471	0,000423146848	-0,030511447293562995	0,0011384231216000226	0,030511447293562995
1	0	0	1	0	0	1	88818,90	-0,200000003	2,09820938	-0,00055480309247142739	-0,19972516636951053	0,000419065211	-0,061025455081201229	0,0022769417786766125	0,061025455081201229
1	0	0	1	0	0	1	89368,91	-0,200000003	2,08396316	-0,00055480327719449997	-0,19972523216168371	0,00041622002	-0,091539358846677645	0,003415456554546487	0,091539358846677645
1	0	0	1	0	0	1	89918,92	-0,200000003	2,0584228	-0,0005547989049802224	-0,19972365893734256	0,000411115732	-0,12205345761477366	0,004553978606226281	0,12205345761477366
1	0	0	1	0	0	1	90468,93	-0,200000003	2,04122424	-0,00055479661508980717	-0,19972283385139763	0,000407679094	-0,15256739948363776	0,0056924948037847802	0,15256739948363776
1	0	0	1	0	0	1	91018,94	-0,200000003	2,02598763	-0,00055480300767388614	-0,1997251356732695	0,000404640654	-0,1830814667396257	0,0068310156797054541	0,1830814667396257
1	0	0	1	0	0	1	91568,96	-0,200000003	1,99374306	-0,00055481502600924845	-0,19972946219779715	0,000398209231	-0,21359572244107818	0,0079695435867797786	0,21359572244107818
1	0	0	1	0	0	1	92118,97	-0,200000003	1,94862342	-0,00055480078693976006	-0,19972433568769642	0,000389187509	-0,24411022090060198	0,0091080805514841331	0,24411022090060198
1	0	0	1	0	0	1	92668,98	-0,200000003	1,90323722	-0,0005548097305736608	-0,19972755607425744	0,000380128913	-0,27462472755869478	0,010246617822088123	0,27462472755869478
1	0	0	1	0	0	1	93218,99	-0,200000003	1,857813	-0,00055481229734089638	-0,1997284793502048	0,000371058151	-0,30513915970123149	0,011385152312416528	0,30513915970123149
1	0	0	1	0	0	1	93769,00	-0,200000003	1,85508943	-0,00055483178666647936	-0,19973549606397014	0,00037052721	-0,33565408172386906	0,012523705080830144	0,33565408172386906
1	0	0	1	0	0	1	94319,01	-0,200000003	1,86021268	-0,00055482215003834822	-0,19973202664878102	0,00037154404	-0,36616922334027136	0,013662266042582371	0,36616922334027136
1	0	0	1	0	0	1	94869,02	-0,200000003	1,86276484	-0,00055482134553541741	-0,19973173663585114	0,00037205327	-0,39668397859819923	0,014800812588780454	0,39668397859819923
1	0	0	1	0	0	1	95419,03	-0,200000003	1,86817384	-0,00055482677452680141	-0,19973369178078723	0,000373137271	-0,42719897297351002	0,015939368056769587	0,42719897297351002
1	0	0	1	0	0	1	95969,04	-0,200000003	1,86952615	-0,00055482612126734528	-0,1997334558653641	0,000373406918	-0,45771410507072954	0,017077928663348307	0,45771410507072954
1	0	0	1	0	0	1	96519,05	-0,200000003	1,87224972	-0,00055481831107371386	-0,199730644992944	0,000373945659	-0,48822924241905606	0,018216489465852886	0,48822924241905606
1	0	0	1	0	0	1	97069,06	-0,200000003	1,87565887	-0,00055480831328117178	-0,19972704534723517	0,000374619791	-0,51874424060611738	0,019355045076063555	0,51874424060611738
1	0	0	1	0	0	1	97619,07	-0,200000003	1,87605882	-0,00055482153278175322	-0,19973180417340746	0,000374708616	-0,54925911870938579	0,020493596205786464	0,54925911870938579
1	0	0	1	0	0	1	98169,09	-0,200000003	1,87457323	-0,00055480922943684794	-0,19972737566827926	0,000374403578	-0,57977396263963328	0,02163214606046801	0,57977396263963328
1	0	0	1	0	0	1	98719,10	-0,200000003	1,87419236	-0,00055480790588259693	-0,19972689845646384	0,000374326628	-0,61028827088218611	0,022770675927921427	0,61028827088218611
1	0	0	1	0	0	1	99269,11	-0,200000003	1,87421143	-0,00055480805643399558	-0,19972695339792227	0,000374330528	-0,64080282459590362	0,023909214954234045	0,64080282459590362
1	0	0	1	0	0	1	99819,12	-0,200000003	1,87518275	-0,00055481967379152768	-0,19973113489202496	0,000374532392	-0,67131757688900634	0,025047761389810509	0,67131757688900634
1	0	0	1	0	0	1	100369,13	-0,200000003	1,87150693	-0,00055482781187858848	-0,19973406476170275	0,00037380369	-0,7018325916503799	0,026186317618431059	0,7018325916503799
1	0	0	1	0	0	1	100919,14	-0,200000003	1,86468852	-0,00055481548736161651	-0,1997296284766769	0,00037243354	-0,73234743561001024	0,027324867474208922	0,73234743561001024
1	0	0	1	0	0	1	101469,15	-0,200000003	1,85476565	-0,00055481006167994605	-0,19972767452817021	0,000370448019	-0,76286246224313882	0,028463424145780608	0,76286246224313882
1	0	0	1	0	0	1	102019,16	-0,200000003	1,83901477	-0,0005548214677158329	-0,19973178136397552	0,000367309694	-0,7933772655533161	0,029601972484872723	0,7933772655533161
1	0	0	1	0	0	1	102569,17	-0,200000003	1,81669295	-0,00055482694215658637	-0,1997337513773248	0,000362854887	-0,8238923997488489	0,03074053316974233	0,8238923997488489
1	0	0	1	0	0	1	103119,18	-0,200000003	1,79029536	-0,00055480394487331315	-0,19972547296771808	0,000357567595	-0,85440672842726822	0,031879063799685408	0,85440672842726822
1	0	0	1	0	0	1	103669,19	-0,200000003	1,70790303	-0,00055481039849337606	-0,19972779641800867	0,000341115694	-0,88492108220563264	0,033017595366141178	0,88492108220563264
1	0	0	1	0	0	1	104219,21	-0,200000003	1,59837055	-0,0005548066952402393	-0,19972646263150416	0,000319236889	-0,91543540501235533	0,034156125777003354	0,91543540501235533
1	1	0	0	0	0	2	104750,28	0,200000003	2,21282697	0,00055612169544564358	0,20019985335106714	0,000443007622	-0,91601489336512358	0,034177747266575514	0,014459202648643818
1	1	0	0	0	0	2	105300,29	0,200000003	2,17513537	0,00055612660674585235	0,20020162212795171	0,000435465627	-0,88542791358650176	0,033036505926403443	0,045046182427265594
1	1	0	0	0	0	2	105850,30	0,200000003	2,17395449	0,00055611715300381184	0,20019821810432886	0,000435221824	-0,85484131115593984	0,031895278665594835	0,07563278485782697
1	1	0	0	0	0	2	106400,31	0,200000003	2,17873502	0,00055611767095906874	0,20019840530798774	0,000436179282	-0,82425480761893555	0,030754055094637824	0,10621928839483118
1	1	0	0	0	0	2	106950,32	0,200000003	2,18597245	0,00055611993419710138	0,20019921960078515	0,000437629991	-0,79366831032278822	0,029612831756535584	0,13680578569097818
1	1	0	0	0	0	2	107500,33	0,200000003	2,19861889	0,00055611518333355584	0,2001975091116295	0,000440158037	-0,76308162783635136	0,02847160150873464	0,16739246817741552
1	1	0	0	0	0	2	108050,34	0,200000003	2,21503639	0,00055613260630104275	0,20020378192513926	0,000443458674	-0,73249482852322752	0,027330366901972934	0,19797926749053936
1	1	0	0	0	0	2	108600,35	0,200000003	2,21932173	0,00055613843728436365	0,20020588029388205	0,000444321253	-0,70190766683491136	0,026189118774505584	0,22856642917885565
1	1	0	0	0	0	2	109150,37	0,200000003	2,23101568	0,00055613214414649542	0,20020361555249866	0,000446657417	-0,67132050291716454	0,025047870563855184	0,25915359309660256
1	1	0	0	0	0	2	109700,38	0,200000003	2,25238514	0,00055613241210497088	0,20020371141084461	0,000450935855	-0,6407333415935319	0,023906622449994666	0,28974075442023514
1	1	0	0	0	0	2	110250,39	0,200000003	2,25792766	0,00055612181409945088	0,20019989630797459	0,000452036882	-0,61014599026993843	0,02276536724698015	0,32032810574382906
1	1	0	0	0	0	2	110800,40	0,200000003	2,27607822	0,00055612596467634042	0,20020139098720381	0,000455674017	-0,57955912670277901	0,021624130242813987	0,35091496931098861
1	1	0	0	0	0	2	111350,41	0,200000003	2,27975416	0,00055613201324144992	0,20020356768414253	0,000456414913	-0,54897204519854515	0,020482885107122557	0,38150205081522259
1	1	0	0	0	0	2	111900,42	0,200000003	2,28563929	0,00055612915641980032	0,20020253999447382	0,000457590795	-0,5183847482501385	0,019341631932919373	0,41208934776362906
1	1	0	0	0	0	2	112450,43	0,200000003	2,30302811	0,00055613894342548307	0,20020606249875302	0,000461080199	-0,4877973996135591	0,01820037683016097	0,44267669640020819
1	1	0	0	0	0	2	113000,44	0,200000003	2,31834102	0,00055613897781156832	0,20020607527138045	0,000464145967	-0,45720993915131661	0,01705911755503672	0,47326415686245069
1	1	0	0	0	0	2	113550,45	0,200000003	2,31253195	0,00055612750830915238	0,20020194663742243	0,000462973403	-0,42662283624779904	0,015917871620909245	0,50385125976596832
1	1	0	0	0	0	2	114100,46	0,200000003	2,34254813	0,00055613243015276064	0,2002037177692479	0,000468986836	-0,39603594945317318	0,014776633750095078	0,5344381465605943
1	1	0	0	0	0	2	114650,47	0,200000003	2,31455088	0,00055612566350566022	0,20020128257023206	0,000463376055	-0,3654489980096368	0,013635393467143139	0,5650250980041305
1	1	0	0	0	0	2	115200,48	0,200000003	2,30017114	0,00055613267785890234	0,20020380693936576	0,000460503012	-0,33486203871979034	0,012494152891434824	0,59561205729397683
1	1	0	0	0	0	2	115750,50	0,200000003	2,31376982	0,00055612712697353632	0,20020180921248509	0,000463220902	-0,30427514740802733	0,011352914852080197	0,62619894860573965
1	1	0	0	0	0	2	116300,51	0,200000003	2,31597924	0,00055611651687075686	0,20019798963931597	0,000463654374	-0,27368858333961805	0,010211689022615082	0,65678551267414886
1	1	0	0	0	0	2	116850,52	0,200000003	2,33340621	0,00055612751426713331	0,20020194808306976	0,00046715248	-0,2431015724059425	0,0090704465200060634	0,68737252360782464
1	1	0	0	0	0	2	117400,53	0,200000003	2,35873723	0,00055612413010249536	0,20020073056066259	0,000472220912	-0,21251453568476182	0,0079292030552305613	0,71795956032900557
1	1	0	0	0	0	2	117950,54	0,200000003	2,39416242	0,00055612794731557376	0,20020210397771834	0,000479316339	-0,18192732322349565	0,0067879530333561805	0,74854677279027187
1	1	0	0	0	0	2	118500,55	0,200000003	2,42492127	0,00055613511482212275	0,20020468493963139	0,000485480588	-0,1513398782176416	0,0056466943349305683	0,77913421779612595
1	1	0	0	0	0	2	119050,56	0,200000003	2,43244457	0,00055612787698788768	0,20020207904218096	0,000486980454	-0,12075271902278976	0,0045054463004977248	0,80972137699097779
1	1	0	0	0	0	2	119600,57	0,200000003	2,48424911	0,00055613579050285952	0,20020492746904272	0,000497358909	-0,090165297559056819	0,0033641884804603034	0,84030879845471078
1	1	0	0	0	0	2	120150,58	0,200000003	2,64172006	0,00055613436128613024	0,20020441370932506	0,000528884004	-0,059577792291132083	0,0022229275335758106	0,87089630372263514
1	1	0	0	0	0	2	120443,64	0,200000003	3,50045824	0,00016956244339131645	0,20020496542139203	0,00070080912	-0,043280331374251162	0,0016148473545977338	0,88719376463951629