Folder: thesis/Experimentelles/Rohdaten/Batteriemessungen/AlteZelle/Studenten_Batterietests/S vs Li GCPL 200µm/ECLab-Export (part 2)

File: S vs Li GCPL 200µm_02_GCPL_C05_loop7.mpt
EC-Lab ASCII FILE
Nb header lines : 3
mode	ox/red	error	control changes	Ns changes	counter inc.	Ns	time/s	control/V/mA	Ewe/V	dq/mA.h	<I>/mA	P/W	(Q-Qo)/mA.h	x	Capacity/mA.h
1	0	0	1	1	0	1	136618,78	-0,200000003	3,22545576	0	0	0	0	0	0
1	0	0	1	0	0	1	136648,78	-0,200000003	1,88514352	-0,00055476126138203674	-0,19971402284983933	0,000376489596	-0,0016615519260725802	6,1994736342092058E-005	0,0016615519260725802
1	0	0	1	0	0	1	136678,78	-0,200000003	1,85267043	-0,00055476688331613933	-0,19971604674579962	0,000370008027	-0,0033258455757758438	0,00012409177007913157	0,0033258455757758438
1	0	0	1	0	0	1	136708,78	-0,200000003	1,82495868	-0,0005547659605650439	-0,19971571455545722	0,000364472915	-0,0049901463695759334	0,00018618907037202893	0,0049901463695759334
1	0	0	1	0	0	1	136738,78	-0,200000003	1,79353309	-0,00055476526201185254	-0,19971546307634768	0,000358196296	-0,0066544422532712179	0,0002482861874623144	0,0066544422532712179
1	0	0	1	0	0	1	136768,78	-0,200000003	1,75707936	-0,0005547721834952633	-0,1997179548099857	0,000350920309	-0,0083187581934377318	0,00031038405288650758	0,0083187581934377318
1	0	0	1	0	0	1	136798,78	-0,200000003	1,71569276	-0,00055476410887473165	-0,19971504795169907	0,00034264967	-0,0099830606899305933	0,0003724814167091616	0,0099830606899305933
1	0	0	1	0	0	1	136828,78	-0,200000003	1,66586888	-0,00055476462000608448	-0,19971523195430736	0,00033269939	-0,011647359508131421	0,0004345786432897943	0,011647359508131421
1	0	0	1	0	0	1	136858,78	-0,200000003	1,61956847	-0,00055476407197531718	-0,19971503466326198	0,000323452172	-0,013311652126703304	0,00049667563855393568	0,013311652126703304
1	0	0	1	0	0	1	136888,78	-0,200000003	1,56677353	-0,00055476316942854067	-0,19971470974647325	0,000312907709	-0,014975931722969952	0,00055877214793835994	0,014975931722969952
1	0	0	1	0	0	1	136918,78	-0,200000003	1,52220631	-0,00055476628299968115	-0,19971583063190848	0,000304008689	-0,01664023211142617	0,00062086943310733248	0,01664023211142617
1	1	0	0	1	0	2	136936,22	0,200000003	2,378443	9,7715879480044058E-009	0,058629530591086221	0,000139447002	-0,017607359489355126	0,00065695425589445094	9,7715879480044058E-009
1	1	0	0	0	0	2	136966,22	0,200000003	2,61395121	0,0005561246430103977	0,20020484015925494	0,000523325696	-0,015939007302309376	0,00059470579267240179	0,0016683619586336941
1	1	0	0	0	0	2	136996,22	0,200000003	2,4269402	0,00055613224755227565	0,20020757779390262	0,000485891826	-0,01427060723516044	0,00053245554297932736	0,003336762025782631
1	1	0	0	0	0	2	137026,22	0,200000003	2,390239	0,00055612834560291629	0,20020617309235309	0,000478540605	-0,012602230951037973	0,00047020618066294701	0,0050051383099050982
1	1	0	0	0	0	2	137056,22	0,200000003	2,39326715	0,00055613721512506406	0,20020936612448816	0,000479154492	-0,010933828774029485	0,00040795585224817587	0,0066735404869135885
1	1	0	0	0	0	2	137086,22	0,200000003	2,41699839	0,00055613161750055034	0,20020735097531699	0,000483900832	-0,0092654274665865331	0,00034570555627806406	0,0083419417943565376
1	1	0	0	0	0	2	137116,22	0,200000003	2,42730212	0,00055613665922813933	0,20020916599696512	0,000485968136	-0,0075970251510303565	0,00028345522269389242	0,010010344109912714
1	1	0	0	0	0	2	137146,22	0,200000003	2,36633635	0,00055613356544574099	0,20020805223547594	0,000473759603	-0,0059286329249709542	0,00022120526556241085	0,011678736335972117
1	1	0	0	0	0	2	137176,22	0,200000003	2,39111495	0,00055613679781142202	0,20020921588693904	0,000478723261	-0,0042602284516802778	0,00015895485147026394	0,013347140809262792
1	1	0	0	0	0	2	137206,22	0,200000003	2,37469745	0,00055613846874816544	0,20020981742407258	0,00047543773	-0,0025918108736213398	9,6703948421593562E-005	0,015015558387321728
1	1	0	0	0	0	2	137236,22	0,200000003	2,4101038	0,00055613452922718387	0,20020839919674112	0,000482523028	-0,00092339524150835315	3,4453117978783034E-005	0,016683974019434714
1	1	0	0	0	0	2	137266,22	0,200000003	2,38206816	0,00055613081609623309	0,20020706246980794	0,000476906862	0,00074501905852526259	-2,7797662762355194E-005	0,01835238831946833
1	1	0	0	0	0	2	137296,22	0,200000003	2,15936542	0,00055614425476226541	0,20021190038882262	0,000432330649	0,0024134431311468598	-9,0048808131890394E-005	0,02002081239208993
1	1	0	0	0	0	2	137326,22	0,200000003	2,39764762	0,00055613494694895219	0,20020854957655414	0,000480029557	0,0040818545750070266	-0,00015229948230535706	0,021689223835950099
1	1	0	0	0	0	2	137356,22	0,200000003	2,39818096	0,00055613104413035853	0,20020714456208026	0,000480132963	0,0057502436736719795	-0,00021454932274954688	0,02335761293461505
1	1	0	0	0	0	2	137386,22	0,200000003	2,41627455	0,00055613167902992826	0,20020737312588963	0,000483755983	0,0074186383826986266	-0,00027679937252387469	0,025026007643641696
1	1	0	0	0	0	2	137416,22	0,200000003	2,41804576	0,00055612846003307232	0,20020621428720278	0,00048410779	0,0090870306843673498	-0,00033904933247644166	0,026694399945310416
1	1	0	0	0	0	2	137446,22	0,200000003	2,3967526	0,00055612161076317229	0,20020374855042458	0,00047983884	0,010755407078204584	-0,00040129869888642746	0,028362776339147651
1	1	0	0	0	0	2	137476,22	0,200000003	2,41257977	0,00055612781709349811	0,20020598282899229	0,000483012904	0,012423778923034371	-0,00046354789556682918	0,030031148183977434
1	1	0	0	0	0	2	137506,22	0,200000003	2,43930101	0,00055613223230259296	0,20020757230401773	0,000488366524	0,014092170489990579	-0,00052579782810628435	0,031699539750933638
1	1	0	0	0	0	2	137536,22	0,200000003	2,50918007	0,00055613079393241139	0,20020705449083341	0,000502355571	0,01576057207771775	-0,00058804813453417728	0,033367941338660813
1	1	0	0	0	0	2	137566,22	0,200000003	2,52224565	0,00055612992288420595	0,20020674091352851	0,000504970609	0,01742896655956129	-0,00065029817583199795	0,035036335820504358
1	1	0	0	0	0	2	137596,22	0,200000003	2,53195882	0,00055612484260482918	0,20020491201323901	0,000506910612	0,019097354265533914	-0,00071254796431296448	0,036704723526476986
1	1	0	0	0	0	2	137626,22	0,200000003	2,57721186	0,00055612506908095546	0,20020499354463171	0,000515970693	0,020765725768629571	-0,0007747971482428064	0,038373095029572646
1	1	0	0	0	0	2	137656,22	0,200000003	2,68520164	0,0005561300040615929	0,20020677014670608	0,000537595537	0,022434109637785811	-0,00083704679356699494	0,04004147889872889
1	1	0	0	0	0	2	137686,22	0,200000003	2,75252867	0,00055612326334830784	0,20020434348098029	0,000551068166	0,024102485572759997	-0,00089929614285618342	0,041709854833703078
1	1	0	0	0	0	2	137716,22	0,200000003	2,80204773	0,00055613105219850938	0,20020714746661414	0,000560990011	0,025770870480560288	-0,00096154582693357798	0,043378239741503366
1	1	0	0	0	0	2	137746,22	0,200000003	2,88718271	0,00055613273216618432	0,20020775225488246	0,000578036357	0,027439260709510598	-0,0010237957095502342	0,045046629970453683
1	1	0	0	0	0	2	137776,22	0,200000003	2,96363258	0,000556123276869456	0,20020434834859286	0,000593332108	0,02910764498404631	-0,0010860453699996758	0,046715014244989389
1	1	0	0	0	0	2	137806,22	0,200000003	2,98281169	0,00055612561359587648	0,20020518956997264	0,000597174396	0,030776017434434445	-0,0011482945892742739	0,04838338669537753
1	1	0	0	0	0	2	137836,22	0,200000003	3,03545427	0,00055612114026397472	0,20020357917073994	0,000607708818	0,032444389970534893	-0,0012105438117469133	0,050051759231477971
1	1	0	0	0	0	2	137866,22	0,200000003	3,1267221	0,00055613059577842554	0,20020698315540966	0,000625991612	0,034112776734097658	-0,001272793565065301	0,05172014599504073
1	1	0	0	0	0	2	137896,22	0,200000003	3,13342619	0,00055613234995388326	0,20020761465847562	0,000627335801	0,035781161873089466	-0,0013350432577687621	0,053388531134032544
1	1	0	0	0	0	2	137926,22	0,200000003	3,21035218	0,00055612826851672589	0,2002061453413289	0,000642732251	0,037449557003939008	-0,0013972933232818691	0,055056926264882086
1	1	0	0	0	0	2	137956,22	0,200000003	3,17936468	0,00055612829836623539	0,20020615608715059	0,000636528363	0,039117949486107987	-0,0014595432899691434	0,056725318747051066
1	1	0	0	0	0	2	137986,22	0,200000003	3,17654586	0,00055612581889910835	0,20020526347912451	0,000635961187	0,040786340892433811	-0,0015217932165152627	0,058393710153376883
1	1	0	0	0	0	2	137991,53	0,200000003	3,50013447	0,00029551424631890323	0,20020533710460547	0,000700745615	0,041081855138752717	-0,001532819250368551	0,058689224399695795

File: S vs Li GCPL 200µm_02_GCPL_C05_loop10.mpt
EC-Lab ASCII FILE
Nb header lines : 3
mode	ox/red	error	control changes	Ns changes	counter inc.	Ns	time/s	control/V/mA	Ewe/V	dq/mA.h	<I>/mA	P/W	(Q-Qo)/mA.h	x	Capacity/mA.h
1	0	0	1	1	0	1	139996,38	-0,200000003	2,99534392	0	0	0	0	0	0
1	0	0	1	0	0	1	140006,38	-0,200000003	1,56317377	-0,00055202131523272122	-0,19872764239041699	0,000310645846	-0,00055202131523272122	2,0596657471884832E-005	0,00055202131523272122
1	0	0	1	0	0	1	140016,14	-0,200000003	1,49997973	-0,0005415747374362416	-0,19971612439729456	0,000299570151	-0,0010935960526689629	4,0803539080609779E-005	0,0010935960526689629
1	1	0	0	1	0	2	140016,14	0,200000003	2,14623284	1,0045596294932894E-008	0,060273574906756186	0,000129361128	-0,0010935860070726678	4,0803164265905568E-005	1,0045596294932894E-008
1	1	0	0	0	0	2	140026,14	0,200000003	3,08824944	0,00055613248375886022	0,20020766282825978	0,000618291204	-0,00053745352331380768	2,0053113568785616E-005	0,00055614252935515514
1	1	0	0	0	0	2	140036,14	0,200000003	3,28931618	0,00055613184241039878	0,20020743194284982	0,000658545527	1,867831909659111E-005	-6,9691319876093184E-007	0,0011122743717655541
1	1	0	0	0	0	2	140046,14	0,200000003	3,26059508	0,00055613206180350643	0,20020751092435619	0,000652795599	0,00057481038090009754	-2,1446948152159306E-005	0,0016684064335690605
1	1	0	0	0	0	2	140056,14	0,200000003	3,24265385	0,00055613283270349101	0,20020778844830723	0,000649204536	0,0011309432136035885	-4,2197011868872589E-005	0,002224539266272551
1	1	0	0	0	0	2	140059,67	0,200000003	3,50003934	0,00019612459496243133	0,20020655344217472	0,00070073083	0,0013270678085660198	-4,9514684199243328E-005	0,0024206638612349827