Folder: thesis/Experimentelles/Rohdaten/Batteriemessungen/AlteZelle/Studenten_Batterietests/S vs Li GCPL 200µm/ZView-Export (part 2)

File: S vs Li GCPL 200µm_02_GCPL_C05_loop4.txt
EC-Lab ASCII FILE
Nb header lines : 3
mode	ox/red	error	control changes	Ns changes	counter inc.	Ns	time/s	control/V/mA	Ewe/V	dq/mA.h	<I>/mA	P/W	(Q-Qo)/mA.h	x	Capacity/mA.h
1	0	0	1	1	0	1	128164,15	-0,200000003	3,35372949	0	0	0	0	0	0
1	0	0	1	0	0	1	128244,15	-0,200000003	1,93673885	-0,00055479870191133677	-0,19972358557590864	0,000386812433	-0,0044356198701624358	0,00016549894111010342	0,0044356198701624358
1	0	0	1	0	0	1	128324,15	-0,200000003	1,90531325	-0,00055480079087283872	-0,19972433740118333	0,000380537414	-0,0088740024437719885	0,00033110096240031309	0,0088740024437719885
1	0	0	1	0	0	1	128404,15	-0,200000003	1,8803823	-0,0005547933836927017	-0,19972167094111046	0,000375553092	-0,013312380765941174	0,0004967028250635664	0,013312380765941174
1	0	0	1	0	0	1	128484,16	-0,200000003	1,84888041	-0,00055479607672906592	-0,19972264044323242	0,000369263289	-0,017750738446284269	0,00066230391755253517	0,017750738446284269
1	0	0	1	0	0	1	128564,16	-0,200000003	1,82198775	-0,00055478876753234202	-0,19972000905392355	0,000363887404	-0,022189059379882886	0,00082790363897106086	0,022189059379882886
1	0	0	1	0	0	1	128644,16	-0,200000003	1,78854311	-0,00055477728190935315	-0,1997158745647863	0,00035720045	-0,02662731932573577	0,00099350108485479437	0,02662731932573577
1	0	0	1	0	0	1	128724,16	-0,200000003	1,75519383	-0,00055477661368581984	-0,1997156336463761	0,00035053966	-0,031065591904433005	0,0011590990020869358	0,031065591904433005
1	0	0	1	0	0	1	128804,16	-0,200000003	1,73033905	-0,00055479297072854304	-0,19972152252805347	0,000345585955	-0,035503856960732672	0,0013246966386483101	0,035503856960732672
1	0	0	1	0	0	1	128884,16	-0,200000003	1,68893337	-0,00055479602554440499	-0,19972262167301402	0,000337318197	-0,039942191024972928	0,0014902968499887293	0,039942191024972928
1	0	0	1	0	0	1	128964,17	-0,200000003	1,64794683	-0,00055479194924483693	-0,19972115491278704	0,000329129834	-0,044380488864123584	0,0016558957097223507	0,044380488864123584
1	0	0	1	0	0	1	129044,17	-0,200000003	1,59633255	-0,00055478469650695712	-0,1997185432463767	0,000318817212	-0,048818801150031149	0,0018214951084838966	0,048818801150031149
1	0	0	1	0	0	1	129124,17	-0,200000003	1,54355657	-0,00055478378925141357	-0,19971821738483008	0,000308276358	-0,053257058979672448	0,0019870924754089309	0,053257058979672448
1	1	0	0	0	0	2	129189,41	0,200000003	2,45901346	0,00055613969909482528	0,20020633528248195	0,000492310093	-0,054654554378289907	0,002039234907683895	0,0011122801535369621
1	1	0	0	0	0	2	129269,41	0,200000003	2,46516514	0,00055613568724526298	0,20020489029937334	0,0004935381	-0,050205461690244339	0,001873233277624176	0,0055613728415825293
1	1	0	0	0	0	2	129349,41	0,200000003	2,41177964	0,00055613195167978605	0,20020354626585251	0,000482846837	-0,045756418860339226	0,0017072335078387117	0,010010415671487648
1	1	0	0	0	0	2	129429,41	0,200000003	2,41753149	0,00055613785232355194	0,20020566970982141	0,000484003511	-0,041307337336229549	0,0015412322943204506	0,014459497195597322
1	1	0	0	0	0	2	129509,42	0,200000003	2,36178446	0,00055613817761010592	0,20020578753083901	0,000472842919	-0,036858241804171533	0,0013752305581468029	0,018908592727655338
1	1	0	0	0	0	2	129589,42	0,200000003	2,37199306	0,00055613445882830362	0,20020444815258909	0,000474883564	-0,032409157999951571	0,0012092292595545616	0,023357676531875299
1	1	0	0	0	0	2	129669,42	0,200000003	2,36816478	0,00055613746978176966	0,20020553260580214	0,000474119704	-0,027960062170352147	0,0010432275122792437	0,02780677236147473
1	1	0	0	0	0	2	129749,42	0,200000003	2,37462139	0,00055614372706164922	0,2002077847508671	0,000475417677	-0,023510964763773581	0,00087722570616471411	0,032255869768053293
1	1	0	0	0	0	2	129829,42	0,200000003	2,37584019	0,00055613120199905491	0,20020327613441488	0,000475651002	-0,019061894605147942	0,00071122491670794342	0,03670493992667895
1	1	0	0	0	0	2	129909,42	0,200000003	2,38283014	0,00055613495336059066	0,20020462639511286	0,000477053632	-0,014612821680423885	0,00054522402404432173	0,041154012851403002
1	1	0	0	0	0	2	129989,43	0,200000003	2,40023804	0,00055613043781783846	0,20020300092041315	0,000480534858	-0,010163745288369328	0,00037922300200993709	0,045603089243457555
1	1	0	0	0	0	2	130069,43	0,200000003	2,39480996	0,00055613340942561626	0,20020407070137744	0,000479450711	-0,0057146904281052653	0,0002132227833556057	0,050052144103721626
1	1	0	0	0	0	2	130149,43	0,200000003	2,41147494	0,00055613314478844403	0,20020397531035462	0,000482786883	-0,0012656364255570077	4,7222596703804186E-005	0,054501198106269888
1	1	0	0	0	0	2	130229,43	0,200000003	2,40827537	0,00055612887652549478	0,200202439000288	0,000482142612	0,0031833903850352397	-0,00011877657537955861	0,058950224916862118
1	1	0	0	0	0	2	130309,43	0,200000003	2,39968562	0,00055613697308136358	0,20020535335902723	0,00048042991	0,0076324565742672102	-0,00028477721673291466	0,063399291106094106
1	1	0	0	0	0	2	130389,43	0,200000003	2,40288544	0,00055614023502833318	0,20020652809353757	0,000481073337	0,012081558802772126	-0,00045077920275999962	0,067848393334599027
1	1	0	0	0	0	2	130469,44	0,200000003	2,44690013	0,00055613708920362912	0,20020539505034534	0,000489882601	0,016530674957085216	-0,00061678170837771085	0,072297509488912128
1	1	0	0	0	0	2	130549,44	0,200000003	2,42048359	0,00055613985988414957	0,20020639314451885	0,000484596298	0,020979790833114154	-0,00078278420361226624	0,076746625364941082
1	1	0	0	0	0	2	130629,44	0,200000003	2,45987034	0,00055613814045488838	0,20020577343621766	0,000492480234	0,025428896422407098	-0,0009487863150348713	0,08119573095423401
1	1	0	0	0	0	2	130709,44	0,200000003	2,38669634	0,00055613358134279648	0,20020413293527344	0,000477826485	0,029877989096903373	-0,0011147879445890482	0,085644823628730291
1	1	0	0	0	0	2	130789,44	0,200000003	2,45707083	0,0005561339739014704	0,2002042735077991	0,000491916086	0,034327060823792614	-0,0012807887925598426	0,090093895355619533
1	1	0	0	0	0	2	130869,44	0,200000003	2,45766115	0,00055613461311161523	0,20020450436470813	0,000492034829	0,038776142306346272	-0,0014467900045275926	0,094542976838173158
1	1	0	0	0	0	2	130949,44	0,200000003	2,48301125	0,00055613018662730848	0,20020291011371802	0,000497106055	0,043225212767752742	-0,0016127908052815235	0,098992047299579635
1	1	0	0	0	0	2	131029,45	0,200000003	2,51072288	0,00055613879513906112	0,20020600986250698	0,000502661802	0,047674314539320173	-0,0017787927742596563	0,10344114907114707
1	1	0	0	0	0	2	131109,45	0,200000003	2,53072095	0,00055612669757919181	0,20020557980390509	0,000506664452	0,052123376685772749	-0,0019447932647714778	0,10789021121759963
1	1	0	0	0	0	2	131189,45	0,200000003	2,59035349	0,00055613632016794547	0,2002090439353144	0,000518612214	0,056572424113795405	-0,0021107932061188896	0,11233925864562227
1	1	0	0	0	0	2	131269,45	0,200000003	2,95687127	0,00055612900510595898	0,2002064105134113	0,000591984601	0,061021482384534579	-0,0022767935520226326	0,11678831691636147
1	1	0	0	0	0	2	131349,45	0,200000003	2,84263444	0,00055613391386634784	0,20020817766687475	0,000569118652	0,065470515949663411	-0,0024427929761268371	0,12123735048149027
1	1	0	0	0	0	2	131429,45	0,200000003	2,67973542	0,00055612594068961005	0,2002053073236983	0,000536497275	0,069919553363635546	-0,00260879254383656	0,12568638789546242
1	1	0	0	0	0	2	131509,45	0,200000003	2,54233885	0,00055612154466493254	0,20020372475506202	0,000508985715	0,074368531180522739	-0,0027747898878989142	0,13013536571234965
1	1	0	0	0	0	2	131589,45	0,200000003	2,46604133	0,00055612634719825466	0,20020545366678742	0,000493714935	0,078817555975189875	-0,0029407889847654003	0,13458439050701678
1	1	0	0	0	0	2	131669,45	0,200000003	2,41145587	0,00055612397751543245	0,20020460058110496	0,000482784555	0,083266572605365094	-0,0031067877770037165	0,13903340713719203
1	1	0	0	0	0	2	131749,45	0,200000003	2,5533855	0,00055612489172899066	0,20020492969793437	0,000511200342	0,087715590807352845	-0,003272786627888471	0,14348242533917982
1	1	0	0	0	0	2	131829,45	0,200000003	2,45390916	0,00055612526513967245	0,20020506412575882	0,000491285056	0,092164587761312128	-0,0034387846859807155	0,1479314222931391
1	1	0	0	0	0	2	131909,45	0,200000003	2,51504612	0,00055611743234263526	0,20020224431926662	0,000503517862	0,09661356244124	-0,0036047819129988998	0,15238039697306691
1	1	0	0	0	0	2	131989,45	0,200000003	2,47028852	0,00055612409572800006	0,20020464313762259	0,000494563254	0,1010625306627753	-0,0037707788990457741	0,15682936519460214
1	1	0	0	0	0	2	132069,45	0,200000003	2,51062751	0,00055612354879991885	0,20020444624354416	0,00050263881	0,10551151954091861	-0,0039367766558184659	0,16127835407274547
1	1	0	0	0	0	2	132149,45	0,200000003	2,59913349	0,00055612109676831302	0,20020356351230419	0,000520355767	0,10996048483332022	-0,0041027735325754246	0,1657273193651471
1	1	0	0	0	0	2	132229,45	0,200000003	2,71763659	0,00055612104243785146	0,20020354395334109	0,000544080453	0,11440945240466482	-0,004268770494362809	0,17017628693649174
1	1	0	0	0	0	2	132309,45	0,200000003	2,77128887	0,0005561122343614697	0,20020037304633978	0,000554813072	0,11885837798611592	-0,0044347658894508122	0,17462521251794282
1	1	0	0	0	0	2	132389,45	0,200000003	3,19993424	0,00055612449452032646	0,20020478670283763	0,000640642131	0,12330736081883746	-0,0046007634206606893	0,17907419535066435
1	1	0	0	0	0	2	132469,45	0,200000003	3,31725645	0,00055611850366989766	0,2002026299970207	0,00066412345	0,12775629850903838	-0,0047667592675424288	0,18352313304086525
1	1	0	0	0	0	2	132549,45	0,200000003	3,47547007	0,00055611782205849882	0,20020238461695552	0,000695797382	0,13220524972245538	-0,0049327556189935411	0,18797208425428224
1	1	0	0	0	0	2	132556,02	0,200000003	3,50011539	0,00036564958232144512	0,20020354229168611	0,000700735487	0,1325708993047768	-0,0049463984965310458	0,18833773383660368

File: S vs Li GCPL 200µm_02_GCPL_C05_loop5.txt
EC-Lab ASCII FILE
Nb header lines : 3
mode	ox/red	error	control changes	Ns changes	counter inc.	Ns	time/s	control/V/mA	Ewe/V	dq/mA.h	<I>/mA	P/W	(Q-Qo)/mA.h	x	Capacity/mA.h
1	0	0	1	1	0	1	132556,07	-0,200000003	3,31531405	0	0	0	0	0	0
1	0	0	1	0	0	1	132596,07	-0,200000003	1,99827588	-0,00055476753556480013	-0,19971628155528074	0,000399088225	-0,0022163489246252934	8,2694958290591718E-005	0,0022163489246252934
1	0	0	1	0	0	1	132636,07	-0,200000003	1,97841108	-0,00055477875155789984	-0,1997203193121649	0,000395128882	-0,0044354630504648307	0,00016549308995633946	0,0044354630504648307
1	0	0	1	0	0	1	132676,07	-0,200000003	1,95723212	-0,00055477574288265574	-0,1997192361892465	0,000390896894	-0,0066545785211871488	0,00024829127180147194	0,0066545785211871488
1	0	0	1	0	0	1	132716,07	-0,200000003	1,93224406	-0,00055477994460612531	-0,19972074880945888	0,000385909225	-0,0088736932738175424	0,00033108942685362925	0,0088736932738175424
1	0	0	1	0	0	1	132756,07	-0,200000003	1,91135073	-0,00055478503765083014	-0,19972258230526573	0,000381739897	-0,011092822239848517	0,00041388811222687232	0,011092822239848517
1	0	0	1	0	0	1	132796,07	-0,200000003	1,88649595	-0,00055478518332375418	-0,19972263474751018	0,000376775948	-0,013311983098891917	0,0004966879875712896	0,013311983098891917
1	0	0	1	0	0	1	132836,07	-0,200000003	1,86335528	-0,00055478275522341331	-0,19972176063152422	0,000372152601	-0,01553112495339335	0,00057948715383069427	0,01553112495339335
1	0	0	1	0	0	1	132876,07	-0,200000003	1,83891952	-0,00055479145571009978	-0,19972489280624128	0,000367278	-0,017750281179077139	0,00066228685629823475	0,017750281179077139
1	0	0	1	0	0	1	132916,07	-0,200000003	1,80688441	-0,00055478205661641229	-0,1997215091330432	0,000360873673	-0,019969448525620874	0,00074508697370001216	0,019969448525620874
1	0	0	1	0	0	1	132956,07	-0,200000003	1,76119328	-0,00055478742814395168	-0,19972344288265482	0,000351751572	-0,022188582898163174	0,00082788586079746189	0,022188582898163174
1	0	0	1	0	0	1	132996,07	-0,200000003	1,71176934	-0,00055477899216694963	-0,19972040593140925	0,000341875275	-0,024407691857489485	0,00091068379969365478	0,024407691857489485
1	0	0	1	0	0	1	133036,07	-0,200000003	1,6608789	-0,00055477621130314144	-0,19971940482059494	0,000331709743	-0,026626803962859878	0,00099348185597298227	0,026626803962859878
1	0	0	1	0	0	1	133076,07	-0,200000003	1,61137879	-0,00055476559298237165	-0,19971558222571594	0,000321817439	-0,028845880803592538	0,0010762785964812621	0,028845880803592538
1	0	0	1	0	0	1	133116,07	-0,200000003	1,55572689	-0,00055477316948357555	-0,19971830976572259	0,000310707139	-0,031064975538474854	0,0011590760046443243	0,031064975538474854
1	0	0	1	0	0	1	133155,09	-0,200000003	1,50017023	-0,0005003861050970025	-0,1997194661286383	0,000299613195	-0,03322969373988695	0,0012398445512335859	0,03322969373988695
1	1	0	0	0	0	2	133185,09	0,200000003	2,61753178	0,00055611298681795603	0,20020064393063245	0,000524031522	-0,031561356632929741	0,0011775966506699157	0,0016683371069572038
1	1	0	0	0	0	2	133225,09	0,200000003	2,49192452	0,0005561211453833513	0,20020358101371523	0,000498892216	-0,029336869227138694	0,0010945980347047253	0,0038928245127482547
1	1	0	0	0	0	2	133265,09	0,200000003	2,44848108	0,00055611888828376922	0,20020276845799283	0,000490192673	-0,02711237739933368	0,0010115992537482485	0,0061173163405532634
1	1	0	0	0	0	2	133305,09	0,200000003	2,42739725	0,00055611975328375891	0,20020307985794038	0,000485972414	-0,024887902993282544	0,00092860112282083264	0,0083417907466044019
1	1	0	0	0	0	2	133345,09	0,200000003	2,42023611	0,00055611476859036422	0,20020128536859904	0,000484534394	-0,022663430137631824	0,0008456030497409408	0,010566263602255118
1	1	0	0	0	0	2	133385,09	0,200000003	2,3714788	0,00055611327287720314	0,20020074691194531	0,000474771834	-0,020438976582383974	0,00076260569678502989	0,012790717157502968
1	1	0	0	0	0	2	133425,09	0,200000003	2,36846948	0,00055611411069581907	0,20020104852659987	0,000474170083	-0,018214522632407674	0,00067960832910126963	0,015015171107479267
1	1	0	0	0	0	2	133465,09	0,200000003	2,37054563	0,0005561112178977993	0,20020000711947568	0,000474583241	-0,015990080054779875	0,00059661138573512218	0,017239613685107066
1	1	0	0	0	0	2	133505,09	0,200000003	2,37199306	0,00055611230179667475	0,20020039732300982	0,000474873959	-0,013765651811872118	0,0005136149772166528	0,019464041928014822
1	1	0	0	0	0	2	133545,09	0,200000003	2,36127019	0,00055611565957632326	0,20020160612349414	0,000472730084	-0,011541187044594048	0,00043061720592481952	0,02168850669529289
1	1	0	0	0	0	2	133585,09	0,200000003	2,36662197	0,0005561136502648393	0,20020088277147309	0,000473799795	-0,0093167188699336768	0,00034761930749897126	0,023912974869953258
1	1	0	0	0	0	2	133625,09	0,200000003	2,42579746	0,00055611532597243789	0,20020148602611421	0,000485648256	-0,0070922662226392422	0,00026462198842002291	0,026137427517247696
1	1	0	0	0	0	2	133665,09	0,200000003	2,36519361	0,00055612926453683104	0,20020650390851062	0,00047352715	-0,0048677700324613446	0,00018162304469754848	0,028361923707425594
1	1	0	0	0	0	2	133705,09	0,200000003	2,36843133	0,0005561137720023593	0,20020092659697341	0,000474162138	-0,0026432954060120979	9,8624905546782758E-005	0,030586398333874842
1	1	0	0	0	0	2	133745,09	0,200000003	2,33811045	0,00055611913270751629	0,200202856450528	0,000468096376	-0,00041880806861986054	1,5626292133644035E-005	0,032810885671267078
1	1	0	0	0	0	2	133785,09	0,200000003	2,35241389	0,0005561165961499015	0,20020194328992954	0,000470957835	0,0018056751076438096	-6,7372166022193152E-005	0,035035368847530758
1	1	0	0	0	0	2	133825,09	0,200000003	2,36951709	0,00055612291629695232	0,20020421854251184	0,000474387314	0,0040301535566647578	-0,00015037044779824851	0,037259847296551712
1	1	0	0	0	0	2	133865,09	0,200000003	2,3677268	0,00055612387961728704	0,20020456533777808	0,000474029715	0,0062546477470339738	-0,00023336931690517226	0,039484341486920928
1	1	0	0	0	0	2	133905,09	0,200000003	2,37711644	0,00055612551895942957	0,20020515550085706	0,000475910958	0,0084791448465179802	-0,00031636829455508019	0,041708838586404934
1	1	0	0	0	0	2	133945,09	0,200000003	2,43558693	0,00055612543774313402	0,20020512626299523	0,000487616984	0,010703643463286235	-0,00039936732881690336	0,04393333720317319
1	1	0	0	0	0	2	133985,09	0,200000003	2,38077307	0,0005561240337755945	0,2002046208347601	0,000476641755	0,012928144871154568	-0,00048236646721842323	0,046157838611041523
1	1	0	0	0	0	2	134025,09	0,200000003	2,45968008	0,00055613303255455366	0,2002078603946785	0,000492447289	0,015152654904974803	-0,00056536592746580627	0,048382348644861766
1	1	0	0	0	0	2	134065,09	0,200000003	2,46465087	0,00055612880826575891	0,20020633965095037	0,00049343874	0,017377162354595933	-0,00064836529129324621	0,050606856094482893
1	1	0	0	0	0	2	134105,09	0,200000003	2,38888669	0,000556126200594008	0,20020540088926688	0,000478268019	0,019601672231285085	-0,00073136474567785715	0,052831365971172045
1	1	0	0	0	0	2	134145,09	0,200000003	2,41736007	0,00055612791764487814	0,20020601902748346	0,000483970041	0,021826176722036445	-0,00081436399910588762	0,055055870461923405
1	1	0	0	0	0	2	134185,09	0,200000003	2,39393377	0,00055612302951018016	0,20020425929926749	0,000479275739	0,024050676503965402	-0,00089736307684142323	0,057280370243852358
1	1	0	0	0	0	2	134225,09	0,200000003	2,41157031	0,00055612607945087878	0,2002053572777472	0,000482809293	0,026275187918283024	-0,0009803625885970199	0,059504881658169984
1	1	0	0	0	0	2	134265,09	0,200000003	2,4253974	0,00055612749023487168	0,20020586515990518	0,000485578785	0,028499688833446944	-0,0010633617086150755	0,061729382573333901
1	1	0	0	0	0	2	134305,09	0,200000003	2,43076849	0,00055612900556706726	0,20020641067941021	0,000486655423	0,030724199264305312	-0,0011463611836764853	0,063953893004192256
1	1	0	0	0	0	2	134345,09	0,200000003	2,42739725	0,00055613659805804486	0,20020914397573453	0,000485987111	0,032948730307419251	-0,0012293614278088637	0,066178424047306202
1	1	0	0	0	0	2	134385,09	0,200000003	2,46634603	0,00055612859509802522	0,20020626291057821	0,000493777916	0,035173264198615309	-0,0013123617782070152	0,068402957938502246
1	1	0	0	0	0	2	134425,09	0,200000003	2,51656985	0,00055612461556742586	0,20020483027978662	0,000503829448	0,037397768490679558	-0,0013953610242217622	0,07062746223056649
1	1	0	0	0	0	2	134465,09	0,200000003	2,46750784	0,00055613443916704922	0,2002083667750977	0,000494015694	0,039622296656333734	-0,001478361160992248	0,072851990396220659
1	1	0	0	0	0	2	134505,09	0,200000003	2,54953814	0,00055613579901225037	0,20020885631929354	0,000510440092	0,041846828738398842	-0,0015613614438892918	0,075076522478285773
1	1	0	0	0	0	2	134545,09	0,200000003	2,82450271	0,00055613393761134803	0,20020818621507354	0,00056548859	0,04407136417675929	-0,0016443618520142266	0,077301057916646208
1	1	0	0	0	0	2	134585,09	0,200000003	3,07409835	0,0005561285687031017	0,20020625340840726	0,000615453697	0,046295885123507853	-0,0017273617194376381	0,079525578863394752
1	1	0	0	0	0	2	134625,09	0,200000003	3,1068573	0,00055613599021815597	0,20020892515340874	0,000622020569	0,048520426444349197	-0,0018103623470458445	0,081750120184236109
1	1	0	0	0	0	2	134665,09	0,200000003	3,27293682	0,00055613515725152358	0,200208625285468	0,000655270182	0,05074496827750736	-0,0018933629937692806	0,083974662017394291
1	1	0	0	0	0	2	134705,09	0,200000003	3,19290614	0,00055613076788435373	0,20020704511353411	0,000639242295	0,052969492008170317	-0,001976362965064281	0,086199185748057254
1	1	0	0	0	0	2	134720,88	0,200000003	3,49998212	0,00032188917516254714	0,20020747224599315	0,000700722565	0,053847511293304467	-0,0020091230451021203	0,087077205033191386