Folder: thesis/Experimentelles/Rohdaten/Batterietests/AlteZelle/Studenten_Batterietests/Sonstige/ECLab-Export (part 5)

File: S vs Li_02_CV_C02_loop8.mpt
EC-Lab ASCII FILE
Nb header lines : 3
mode	ox/red	error	control changes	counter inc.	time/s	control/V	Ewe/V	<I>/mA	cycle number	(Q-Qo)/C	P/W
2	0	0	1	0	9520,93	2,39515305	2,39550805	-0,004158166702836752	9	0	9,96092149E-006
2	0	0	0	0	9527,54	2,32904363	2,32939649	-0,28850162510449805	9	-0,000939432823	0,000672034686
2	0	0	0	0	9534,09	2,26353455	2,26394653	-0,62348487274721267	9	-0,00390192727	0,00141153636
2	0	0	1	0	9540,67	2,19772553	2,19827604	-1,0075416527688485	9	-0,00925591588	0,00221485458
2	0	0	1	0	9547,22	2,13221645	2,1328361	-1,392914771102367	9	-0,0171111114	0,00297085894
2	0	0	0	0	9553,77	2,06670761	2,06733584	-1,8060052053382022	9	-0,0275836792	0,00373361935
2	0	0	0	0	9560,32	2,00119853	2,00181556	-2,2620634151001725	9	-0,040889591	0,00452823378
2	0	0	1	0	9566,87	1,93568969	1,93618488	-2,7583588783939702	9	-0,0574037023	0,00534069259
2	0	0	1	0	9573,43	1,87018085	1,87067473	-3,170378996680185	9	-0,0768682137	0,00593074784
2	0	0	0	0	9579,98	1,80467176	1,80522454	-3,5631803112725466	9	-0,0989505276	0,00643234048
2	0	0	0	0	9586,53	1,73916268	1,73967433	-3,9070810352762637	9	-0,123489447	0,00679704873
2	0	0	1	0	9593,08	1,67365372	1,67421412	-4,1995385686556544	9	-0,150089368	0,00703092664
2	0	0	1	0	9599,63	1,60814476	1,60859346	-4,4448293298482893	9	-0,178311408	0,00714992359
2	0	0	0	0	9606,18	1,5426358	1,54338384	-4,7664502598345421	9	-0,208292961	0,00735646207
2	0	0	0	0	9612,73	1,47712696	1,47752333	-5,0373324540754042	9	-0,240452498	0,00744277611
2	0	0	1	0	9619,28	1,41161788	1,41210306	-5,3006802685558797	9	-0,274275035	0,00748510659
2	0	0	1	0	9625,83	1,34610891	1,34640253	-5,5439525345961299	9	-0,309821367	0,00746439165
2	0	0	0	0	9632,38	1,28059995	1,28104258	-5,7125061862170765	9	-0,346857429	0,00731796352
2	0	0	0	0	9638,93	1,21509087	1,2156024	-5,8565198418994842	9	-0,384767801	0,00711919973
2	0	0	1	0	9645,49	1,14958191	1,1502223	-5,9661704401175373	9	-0,423619539	0,00686242245
2	0	0	1	0	9652,04	1,08407295	1,08462191	-6,1145254870256026	9	-0,463276178	0,00663194852
2	0	0	0	0	9658,59	1,01856411	1,0188514	-6,3008359422286451	9	-0,503918231	0,00641961535
2	0	0	0	0	9665,14	0,953055024	0,953641534	-6,4635616441567757	9	-0,545682371	0,00616392074
2	0	0	1	0	9671,69	0,887546122	0,88821137	-6,6230888043840602	9	-0,588569999	0,00588270277
2	0	0	1	0	9678,24	0,82203716	0,822681069	-6,7984826589624128	9	-0,632429838	0,00559298322
2	0	0	0	0	9684,79	0,756528139	0,756730199	-7,0246599316597274	9	-0,677734017	0,00531577226
2	0	0	0	0	9691,34	0,691019177	0,691510439	-7,1448227713505613	9	-0,724155247	0,00494071934
2	0	0	1	0	9697,89	0,625510216	0,625950098	-7,3006629571318656	9	-0,771570683	0,00456985086
2	0	0	1	0	9704,44	0,560001194	0,560389638	-7,4350402926405222	9	-0,819892108	0,00416651974
2	1	0	0	0	9710,93	0,504793644	0,505283892	-7,4834958190719475	9	-0,868534207	0,00378128979
2	1	0	0	0	9717,48	0,57030338	0,570763767	-6,8344385489717747	9	-0,91542381	0,00390084996
2	1	0	1	0	9724,03	0,635811567	0,636494577	-6,3026780287424845	9	-0,958359361	0,0040116203
2	1	0	1	0	9730,58	0,70132035	0,701794267	-5,8885378394870426	9	-0,998282433	0,00413254229
2	1	0	0	0	9737,13	0,76682955	0,767304778	-5,4689003738264288	9	-1,03541124	0,00419631321
2	1	0	0	0	9743,68	0,832338512	0,832865059	-5,1039041367669856	9	-1,07002795	0,00425086357
2	1	0	1	0	9750,23	0,897847533	0,898455441	-4,7192540280520928	9	-1,10223949	0,00424003927
2	1	0	1	0	9756,78	0,963357151	0,963777423	-4,3444666319462829	9	-1,13188732	0,0041870987
2	1	0	0	0	9763,33	1,02886546	1,02944589	-3,9947926190992218	9	-1,15925646	0,00411242293
2	1	0	0	0	9769,88	1,09437442	1,09517646	-3,681441854685545	9	-1,18439901	0,0040318286
2	1	0	1	0	9776,43	1,15988338	1,16047633	-3,3726751804351808	9	-1,20743883	0,00391390966
2	1	0	1	0	9782,98	1,22539127	1,2258538	-3,0809486031026931	9	-1,22864342	0,00377679267
2	1	0	0	0	9789,54	1,29090142	1,29141676	-2,8082205876708032	9	-1,24796581	0,00362658314
2	1	0	0	0	9796,09	1,35641038	1,35697722	-2,5383514817804134	9	-1,26547027	0,00344448513
2	1	0	1	0	9802,64	1,42191935	1,42251742	-2,2759344888230189	9	-1,28122413	0,00323755643
2	1	0	1	0	9809,19	1,48742831	1,48786736	-2,0266082839419434	9	-1,29533827	0,00301532424
2	1	0	0	0	9815,74	1,55293727	1,55368805	-1,7831279753396957	9	-1,30781889	0,00277042459
2	1	0	0	0	9822,29	1,61844611	1,61895788	-1,551970050049327	9	-1,31873071	0,0025125742
2	1	0	1	0	9828,84	1,68395519	1,68455839	-1,3132143182059152	9	-1,32807493	0,00221218611
2	1	0	1	0	9835,39	1,74946427	1,75004852	-1,082549430740377	9	-1,33590543	0,00189451408
2	1	0	0	0	9841,94	1,81497312	1,81550884	-0,86243246030062797	9	-1,34226978	0,00156575372
2	1	0	0	0	9848,49	1,8804822	1,8810389	-0,65076170473670029	9	-1,34720421	0,00122410804
2	1	0	1	0	9855,08	1,94639134	1,94691968	-0,44110185978934259	9	-1,35079277	0,000858789892
2	1	0	1	0	9861,64	2,01190019	2,01245022	-0,24270937972081174	9	-1,35303283	0,000488440564
2	1	0	0	0	9868,23	2,07780933	2,07840109	-0,047341618357071014	9	-1,35397804	9,83948703E-005
2	1	0	1	0	9874,90	2,14451814	2,14491272	0,14075335705031989	9	-1,35366297	0,000301903667
2	1	0	1	0	9881,45	2,21002746	2,21058297	0,32538374226230003	9	-1,35213804	0,000719287782
2	1	0	0	0	9888,00	2,27553606	2,27607322	0,50849687137330598	9	-1,34940147	0,0011573761
2	1	0	0	0	9894,55	2,34104514	2,34148335	0,69553303578868646	9	-1,34546649	0,00162857899
2	1	0	1	0	9901,10	2,4065547	2,40691376	0,87705391207028557	9	-1,34029996	0,00211099302
2	1	0	1	0	9907,69	2,47246361	2,47286415	1,0718115217362829	9	-1,33387411	0,0026504444
2	1	0	0	0	9914,24	2,53797269	2,53851485	1,2805827501558725	9	-1,32615757	0,00325077842
2	1	0	0	0	9920,79	2,60348129	2,60364437	1,4741974966600547	9	-1,31713986	0,00383828604
2	1	0	1	0	9927,34	2,66899014	2,66965532	1,6780280657112563	9	-1,30679679	0,00447975658
2	1	0	1	0	9933,90	2,73449922	2,73488522	1,9025440781066826	9	-1,29508293	0,00520323962
2	1	0	0	0	9940,45	2,80000806	2,80057573	2,1494007439663002	9	-1,28181183	0,00601955969
2	1	0	0	0	9947,00	2,86551714	2,86610627	2,394658837467432	9	-1,26690567	0,00686334679
2	1	0	1	0	9953,55	2,9310267	2,93163729	2,6253986564466061	9	-1,25038922	0,00769671658
2	1	0	1	0	9960,10	2,9965353	2,9970665	2,8603934378673584	9	-1,23241711	0,00857278891
2	1	0	0	0	9966,65	3,06204414	3,06240654	3,1394533365964749	9	-1,21280575	0,00961428229
2	1	0	0	0	9973,20	3,12755275	3,12788653	3,3514036300281658	9	-1,19151115	0,0104828104
2	1	0	0	0	9979,75	3,19306183	3,19353628	3,6002084818225094	9	-1,16869295	0,011497396
2	1	0	1	0	9986,30	3,25857091	3,25907707	4,0172987667222771	9	-1,14367056	0,0130926864
2	1	0	0	0	9992,85	3,32407975	3,3245573	4,0141472580532122	9	-1,11666489	0,013345263
2	1	0	0	0	9999,40	3,38958907	3,39005756	4,449399506052327	9	-1,08880925	0,0150837209
2	1	0	1	0	10005,96	3,45509863	3,45555758	4,7268078964546874	9	-1,05888534	0,016333757
2	1	0	1	0	10012,51	3,52060676	3,52122855	5,0882401838898624	9	-1,02680683	0,0179168563
2	1	0	1	0	10019,06	3,5861156	3,58648801	5,7035990279431027	9	-0,991456687	0,0204558894
2	1	0	0	0	10025,61	3,65162492	3,65218878	6,0830215873817651	9	-0,952992558	0,0222163424
2	1	0	0	0	10032,16	3,71713257	3,7175684	6,1029868370424051	9	-0,913554609	0,0226882715
2	1	0	1	0	10038,71	3,78264284	3,78309917	6,6361696844299443	9	-0,871814549	0,0251052883
2	1	0	0	0	10045,26	3,8481524	3,84867072	7,1585323046942899	9	-0,826867998	0,0275508333
2	1	0	0	0	10051,81	3,91366053	3,91421986	7,6606895253062246	9	-0,778154433	0,0299856234
2	1	0	0	0	10058,36	3,9791708	3,97982979	8,5381023289908454	9	-0,725175083	0,0339801945
2	1	0	1	0	10064,91	4,04467869	4,04522038	8,8699887146552218	9	-0,668925822	0,0358810574
2	1	0	0	0	10071,50	4,11058807	4,11107159	10,593414361648278	9	-0,603807747	0,0435502864
2	1	0	0	0	10078,06	4,17609692	4,17673111	11,619928392271211	9	-0,530277014	0,0485333167
2	0	0	1	1	10084,53	4,15919447	4,159688	11,712223947048174	9	-0,45445323	0,0487191975
2	0	0	0	1	10091,08	4,09368515	4,09428692	10,572885508696562	9	-0,38167873	0,0432884283
2	0	0	0	1	10097,63	4,02817678	4,02841711	9,3853581920265869	9	-0,316359758	0,0378081389
2	0	0	1	1	10104,18	3,96266723	3,96308708	8,268416404724137	9	-0,258826017	0,0327684544
2	0	0	1	1	10110,73	3,89715862	3,89768696	7,2400801827510298	9	-0,208037943	0,0282195657
2	0	0	0	1	10117,28	3,83164954	3,83217692	6,3340202147762099	9	-0,163544327	0,0242730863
2	0	0	0	1	10123,83	3,7661407	3,76656651	5,5195432466765267	9	-0,124589108	0,0207897276
2	0	0	1	1	10130,42	3,70023131	3,70070553	4,7188108861446381	9	-0,0911107883	0,0174629297
2	0	0	1	1	10136,97	3,63472247	3,63511515	4,1314835473895053	9	-0,062213935	0,0150184184
2	0	0	0	1	10143,53	3,56921363	3,56974506	3,5945200386146611	9	-0,0370857902	0,0128315203
2	0	0	0	1	10150,08	3,50370431	3,5044055	3,2351232096552704	9	-0,0147675453	0,0113371834
2	0	0	1	1	10156,63	3,43819547	3,43869472	2,913874619950848	9	0,0053897528	0,0100199254
2	0	0	1	1	10163,18	3,37268662	3,37313437	2,5939596208433357	9	0,0232588165	0,00874977466
2	0	0	0	1	10169,73	3,30717778	3,30766439	2,3087826427072288	9	0,0393493101	0,00763667794
2	0	0	0	1	10176,28	3,24166846	3,24206376	2,1168939440200704	9	0,0538442843	0,00686310511
2	0	0	1	1	10182,83	3,17615962	3,17667365	1,935821146393815	9	0,0671049431	0,0061494722
2	0	0	1	1	10189,38	3,11065102	3,11117363	1,7681249330441203	9	0,0792305097	0,00550094387
2	0	0	0	1	10195,93	3,04514194	3,0456233	1,6128232919921466	9	0,0903024226	0,0049120523
2	0	0	0	1	10202,48	2,97963262	2,97994256	1,4640387346347165	9	0,100376837	0,00436275126
2	0	0	1	1	10209,03	2,91412377	2,91459274	1,3197956507404669	9	0,109491304	0,00384666678
2	0	0	1	1	10215,58	2,84861493	2,84904242	1,175679197224473	9	0,117666334	0,00334955985
2	0	0	0	1	10222,14	2,78310585	2,78378248	1,0302573464189973	9	0,124887034	0,00286801229
2	0	0	0	1	10228,69	2,71759701	2,71809196	0,89388896400729395	9	0,131171897	0,00242967252
2	0	0	1	1	10235,24	2,65208817	2,65273213	0,74803916613260851	9	0,136539951	0,00198434759
2	0	0	1	1	10241,79	2,58657885	2,5870316	0,5951104150153696	9	0,140943214	0,00153956946
2	0	0	0	1	10248,38	2,52066994	2,52123094	0,42021439224481408	9	0,144302145	0,00105945754
2	0	0	0	1	10254,93	2,45516086	2,45580077	0,21672629200232496	9	0,14641802	0,000532236591
2	0	0	0	1	10260,93	2,39515305	2,39542794	-0,011985378085889592	9	0,147051319	2,87101102E-005

File: S vs Li_02_CV_C02_loop10.mpt
EC-Lab ASCII FILE
Nb header lines : 3
mode	ox/red	error	control changes	counter inc.	time/s	control/V	Ewe/V	<I>/mA	cycle number	(Q-Qo)/C	P/W
2	0	0	1	0	11001,19	2,39555311	2,39630914	-0,014168250374495982	11	0	3,39515063E-005
2	0	0	0	0	11007,86	2,32884359	2,32926631	-0,35493198557136019	11	-0,00119962357	0,000826731091
2	0	0	0	0	11014,51	2,26233459	2,26297522	-0,765117782323312	11	-0,00489134109	0,00173144264
2	0	0	1	0	11021,20	2,19542551	2,19587255	-1,2305242745205778	11	-0,0115518691	0,00270207436
2	0	0	0	0	11027,86	2,12891603	2,12960148	-1,6902118287980557	11	-0,0212671943	0,0035994777
2	0	0	0	0	11034,51	2,06240726	2,0626893	-2,2021314874291456	11	-0,0342047624	0,00454231305
2	0	0	1	0	11041,16	1,99589801	1,99647796	-2,7564372730751802	11	-0,050702475	0,00550316647
2	0	0	1	0	11047,81	1,92938888	1,93005669	-3,3061759111781939	11	-0,0709260628	0,00638110703
2	0	0	0	0	11054,46	1,86287975	1,86337447	-3,7669082085291558	11	-0,0944302604	0,00701916078
2	0	0	0	0	11061,11	1,79637074	1,796893	-4,2319860433538778	11	-0,12110088	0,00760442624
2	0	0	1	0	11067,76	1,72986162	1,7303412	-4,6249904284874502	11	-0,150605991	0,00800281111
2	0	0	0	0	11074,41	1,66335225	1,66397989	-4,9377145183583053	11	-0,182332352	0,00821625721
2	0	0	0	0	11081,06	1,59684324	1,59728825	-5,3020309048394406	11	-0,216400564	0,00846887194
2	0	0	1	0	11087,71	1,53033423	1,5307765	-5,6362372450530458	11	-0,25272575	0,00862781983
2	0	0	1	0	11094,36	1,46382511	1,46403456	-5,9008226220806502	11	-0,291053742	0,00863900781
2	0	0	0	0	11101,02	1,39731598	1,39782333	-6,1786664103468493	11	-0,33121562	0,00863668416
2	0	0	0	0	11107,67	1,33080685	1,331442	-6,4121378660202317	11	-0,373013467	0,00853738934
2	0	0	1	0	11114,32	1,26429772	1,26477003	-6,7762471611301299	11	-0,416771472	0,00857039448
2	0	0	1	0	11120,97	1,19778872	1,19822931	-6,9393144656532544	11	-0,462409377	0,00831488986
2	0	0	0	0	11127,62	1,13127947	1,13177681	-7,1377409199873792	11	-0,509333909	0,00807832927
2	0	0	1	0	11134,27	1,06477034	1,06537533	-7,2869612549742157	11	-0,557293773	0,00776334852
2	0	0	1	0	11140,92	0,998261273	0,9984833	-7,4934721911947123	11	-0,606434405	0,0074821068
2	0	0	0	0	11147,57	0,931752145	0,932231963	-7,6503632018963405	11	-0,656930804	0,00713191321
2	0	0	0	0	11154,22	0,865243077	0,865850568	-7,7644960855444365	11	-0,708130181	0,00672289357
2	0	0	1	0	11160,87	0,79873395	0,799258769	-7,9218582684795072	11	-0,760232747	0,00633161468
2	0	0	1	0	11167,52	0,732224882	0,732596993	-8,0786134873827392	11	-0,813533723	0,00591836777
2	0	0	0	0	11174,18	0,665715754	0,666155517	-8,2004369348287872	11	-0,86767906	0,00546276616
2	0	0	1	0	11180,83	0,599206567	0,599673867	-8,2644116580486298	11	-0,922551095	0,00495595159
2	0	0	1	0	11187,48	0,532697439	0,532941937	-8,4097966526945523	11	-0,978013098	0,00448193355
2	1	0	0	0	11194,08	0,533297539	0,533622861	-8,0569666077693261	11	-1,03310192	0,00429938175
2	1	0	0	0	11200,73	0,599806666	0,600264668	-7,4001268446445606	11	-1,08460665	0,00444203475
2	1	0	1	0	11207,38	0,666315854	0,666846395	-6,8743825778365274	11	-1,13199794	0,00458415737
2	1	0	0	0	11214,03	0,732824922	0,733358085	-6,3582470615704806	11	-1,17603958	0,00466287183
2	1	0	0	0	11220,68	0,799334049	0,799829602	-5,9158664196729626	11	-1,2168541	0,00473168492
2	1	0	1	0	11227,33	0,865842998	0,866561532	-5,5202389247715475	11	-1,25484967	0,00478362665
2	1	0	1	0	11233,98	0,932352245	0,932692587	-5,1082726381719181	11	-1,29014182	0,00476444792
2	1	0	0	0	11240,64	0,998861432	0,999494612	-4,7347645362218246	11	-1,3229183	0,00473237177
2	1	0	0	0	11247,29	1,06537044	1,06598616	-4,3627910539507936	11	-1,35316336	0,00465067476
2	1	0	1	0	11253,94	1,13187957	1,13243771	-4,0619958229362963	11	-1,38143647	0,00459995726
2	1	0	0	0	11260,59	1,1983887	1,19915974	-3,6886829398572448	11	-1,40718818	0,00442332029
2	1	0	0	0	11267,24	1,26489782	1,26541078	-3,3138557958106176	11	-1,43051016	0,00419338886
2	1	0	1	0	11273,89	1,33140683	1,3319726	-3,0171751969804262	11	-1,45156372	0,00401879475
2	1	0	1	0	11280,54	1,39791608	1,39834404	-2,6778552395602038	11	-1,47049665	0,00374456285
2	1	0	0	0	11287,19	1,46442521	1,46483564	-2,3695621192455309	11	-1,48720586	0,00347101898
2	1	0	0	0	11293,84	1,53093421	1,53151751	-2,0886593665927718	11	-1,50201631	0,0031988183
2	1	0	1	0	11300,49	1,59744334	1,597929	-1,8095194250345229	11	-1,51498592	0,00289148348
2	1	0	1	0	11307,14	1,66395223	1,66438091	-1,5440205573753952	11	-1,52612925	0,00256983843
2	1	0	0	0	11313,80	1,7304616	1,73089218	-1,2704924155647586	11	-1,53545856	0,00219908543
2	1	0	1	0	11320,45	1,79697061	1,79753387	-1,015712284793457	11	-1,54305923	0,00182577723
2	1	0	1	0	11327,10	1,86347973	1,8641156	-0,76649833470583053	11	-1,54897439	0,0014288415
2	1	0	0	0	11333,75	1,92998886	1,93080747	-0,53342034077892819	11	-1,5532825	0,00102993194
2	1	0	0	0	11340,43	1,99679804	1,99723911	-0,30212554281267149	11	-1,55607116	0,000603416935
2	1	0	1	0	11347,08	2,06330729	2,06371045	-0,075690451039311936	11	-1,55731606	0,000156203168
2	1	0	0	0	11353,89	2,13141656	2,13193464	0,1466707420768215	11	-1,5570693	0,000312692428
2	1	0	0	0	11360,54	2,19792557	2,19853663	0,35761847455675302	11	-1,55538678	0,000786237302
2	1	0	1	0	11367,19	2,26443481	2,26500797	0,56604905224715821	11	-1,55231249	0,00128210557
2	1	0	1	0	11373,84	2,33094382	2,33137941	0,78037953392292045	11	-1,5478344	0,00181936077
2	1	0	0	0	11380,49	2,39745283	2,39796114	0,99553963976601523	11	-1,54193103	0,00238726544
2	1	0	0	0	11387,19	2,46436214	2,4650836	1,211162075400349	11	-1,53454769	0,00298561575
2	1	0	1	0	11393,84	2,53087115	2,53143501	1,4282694325471894	11	-1,52577746	0,00361557119
2	1	0	0	0	11400,49	2,5973804	2,59779644	1,6486883747080867	11	-1,51556051	0,00428295694
2	1	0	0	0	11407,14	2,66388988	2,6644485	1,8709415557483808	11	-1,50382209	0,00498502748
2	1	0	1	0	11413,79	2,73039865	2,73077989	2,1248505307982307	11	-1,49051416	0,00580249913
2	1	0	1	0	11420,44	2,79690766	2,79746151	2,3824088169882672	11	-1,47552979	0,00666469708
2	1	0	0	0	11427,09	2,86341667	2,86405325	2,6277635705967766	11	-1,45890379	0,00752605498
2	1	0	0	0	11433,74	2,92992592	2,93030453	2,8713907810548954	11	-1,44063139	0,00841404963
2	1	0	1	0	11440,39	2,99643517	2,99678612	3,1494363745053562	11	-1,42065644	0,00943818688
2	1	0	1	0	11447,04	3,06294298	3,06338573	3,4290037338629971	11	-1,39880109	0,0105043612
2	1	0	0	0	11453,69	3,12945318	3,12990952	3,6755576257904358	11	-1,37518287	0,011504163
2	1	0	1	0	11460,35	3,19596219	3,19649076	4,0048588017622534	11	-1,34967077	0,0128014944
2	1	0	1	0	11467,00	3,2624712	3,26301265	4,4253443243602816	11	-1,32179046	0,0144399544
2	1	0	0	0	11473,65	3,32898068	3,32944417	4,7062773903211091	11	-1,29146397	0,0156692881
2	1	0	0	0	11480,30	3,39548945	3,39596605	5,1920387186109875	11	-1,25813234	0,0176319871
2	1	0	1	0	11486,95	3,46199894	3,46269774	5,6340891420841216	11	-1,22199821	0,0195091479
2	1	0	1	0	11493,60	3,52850652	3,5288682	6,0358244270669414	11	-1,18306005	0,0212996285
2	1	0	0	0	11500,25	3,59501719	3,59555101	6,4035496786236582	11	-1,14161682	0,0230242889
2	1	0	1	0	11506,90	3,6615262	3,66211271	6,9893153756856922	11	-1,09707713	0,0255956613
2	1	0	1	0	11513,55	3,72803545	3,72839379	7,4740249564250406	11	-1,04894686	0,0278661083
2	1	0	0	0	11520,20	3,79454446	3,79505587	7,9419245099027763	11	-0,997768104	0,0301400479
2	1	0	0	0	11526,85	3,86105347	3,86171746	8,5344830726583962	11	-0,943266988	0,0329577625
2	1	0	1	0	11533,51	3,92756271	3,92805886	9,0950110480189325	11	-0,884648144	0,0357257389
2	1	0	1	0	11540,16	3,99407268	3,99467134	9,7481441475028467	11	-0,822688758	0,0389406309
2	1	0	0	0	11546,85	4,0609808	4,06150293	10,147990042964608	11	-0,755908906	0,0412160903
2	1	0	1	0	11553,50	4,12749004	4,12803411	11,342402604718998	11	-0,684999347	0,0468218252
2	1	0	1	0	11560,15	4,19399929	4,19435549	12,061788332958984	11	-0,606829166	0,0505914278
2	0	0	1	1	11566,73	4,1401906	4,14084005	11,404497878317373	11	-0,529211104	0,0472242013
2	0	0	1	1	11573,38	4,07368279	4,0740099	10,423437831302466	11	-0,456909359	0,0424651876
2	0	0	0	1	11580,03	4,00717354	4,00765848	9,4366514409582016	11	-0,39019838	0,0378188752
2	0	0	0	1	11586,68	3,94066453	3,94106674	8,44072649379568	11	-0,330550969	0,0332654677
2	0	0	1	1	11593,33	3,87415528	3,87463522	7,260175908605248	11	-0,278619885	0,0281305332
2	0	0	1	1	11599,98	3,80764627	3,8080337	6,163200269142784	11	-0,233895093	0,0234696735
2	0	0	0	1	11606,64	3,74113727	3,74146199	5,2820059557755597	11	-0,195559338	0,0197624248
2	0	0	0	1	11613,33	3,67422867	3,67479157	4,6871767394762893	11	-0,162217304	0,0172243975
2	0	0	1	1	11619,98	3,60771894	3,60840845	4,1184387318789958	11	-0,133025944	0,0148610091
2	0	0	0	1	11626,63	3,54120946	3,54172659	3,6593786428371968	11	-0,107198752	0,0129605187
2	0	0	0	1	11633,28	3,47470069	3,47513509	3,2355760745704032	11	-0,0843296796	0,0112440642
2	0	0	1	1	11639,93	3,4081912	3,40866327	2,8316097768644432	11	-0,0642013699	0,00965200458
2	0	0	1	1	11646,58	3,3416822	3,34253216	2,530478198081248	11	-0,0464192927	0,00845820457
2	0	0	0	1	11653,23	3,27517295	3,27547002	2,1871632753560845	11	-0,0305053834	0,00716398796
2	0	0	0	1	11659,88	3,20866466	3,20898914	1,9790583886530077	11	-0,0166561753	0,00635077711
2	0	0	1	1	11666,53	3,14215493	3,14268684	1,770240064710375	11	-0,00417955127	0,00556331035
2	0	0	0	1	11673,19	3,07564592	3,07631564	1,5875348641226595	11	0,00690146862	0,00488375826
2	0	0	0	1	11679,84	3,00913692	3,00946355	1,4478631255527325	11	0,0169833153	0,00435729139
2	0	0	1	1	11686,49	2,94262767	2,94305205	1,3033763986701742	11	0,0261080936	0,00383590464
2	0	0	1	1	11693,14	2,87611866	2,87669063	1,1547771546368778	11	0,0342764221	0,00332193659
2	0	0	0	1	11699,79	2,80960965	2,81019926	1,0144442444046326	11	0,0414929353	0,00285079051
2	0	0	0	1	11706,44	2,74310017	2,74360752	0,8752704073364512	11	0,047771994	0,00240139849
2	0	0	1	1	11713,09	2,6765914	2,67700553	0,73832672027250189	11	0,0531429797	0,00197650469
2	0	0	0	1	11719,74	2,61008215	2,61062407	0,60897537010411366	11	0,0576669089	0,00158980582
2	0	0	0	1	11726,43	2,54317307	2,54363179	0,43945993358890246	11	0,0611810237	0,00111782423
2	0	0	1	1	11733,08	2,47666407	2,47738075	0,25311544413367914	11	0,0634924844	0,000627063331
2	0	0	1	1	11739,77	2,40975475	2,41037846	0,040913027662706272	11	0,064496547	9,86158775E-005
2	0	0	0	1	11741,15	2,39595318	2,39638925	-0,0071681684348732237	11	0,0645197034	1,7177721E-005