Folder: thesis/Experimentelles/Rohdaten/Batterietests/AlteZelle/Studenten_Batterietests/Sonstige/ECLab-Export

Note: README.md
# thesis

Zusammenfassung
---------------
Es konnten die Festkörperelektrolytkeramiken LATP, LAGP, LTO und LLTO hergestellt,
mit XRD und MAS-NMR charakterisiert und zu Elektrodensuspensionen weiterverarbeitet
werden. Aus den Daten der MAS-NMR konnten dabei gegenüber der XRD keine Mehrinfor-
mationen gewonnen werden. Die mit den Suspensionen gegossenen und gestanzten Elektro-
denproben wurden mittels REM und EDX untersucht und als Kathode in Testzellen verbaut.
Mit diesen wurden Ladekennlinien erstellt und eine zyklischer Voltametrie durchgeführt. Aus
den Ladekennlinien konnten die Kapazitäten und der Grad der Lithiuminsertation in die
Materialen bestimmt werden. Die zyklische Voltametrie lieferte nicht-reaktive Spannungsbe-
reiche der Materialien.

Für ein noch besseres Verständnis der Lithiumbewegung und -insertation wurde eine in-situ
NMR-Testzelle konzipiert, konstruiert, gebaut und getestet. Für den Test kam dabei eine
Lithium-Schwefel-Zelle zum Einsatz, für welche ein Di?usionskoe?zient sowie ein Spektrum
vor und nach einer 90 minütigen Ladezeit aufgenommen worden ist.

Abstract
--------
The all solid state electrolyte ceramics LATP, LAGP, LTO, and LLTO were successfully
synthesized and characterized by using XRD. MAS-NMR spectroscopy were not able to ge-
nerate additional information. All powders were processed to electrode slurries, casted on
aluminum foils and punched to electrode samples. Those samples were studied by SEM and
EDX and then build into battery test cells. The cells were analyzed by measuring the charge
curves as well as cyclic voltammetry. With the charge curves capacities and the amount of
lithium insertion were calculated. The cyclic voltammetry was able to detect non-reactive
voltage regions.

To be able to better understand lithium movement and insertion a novel in-situ NMR sample
cell was designed, constructed, built and tested. Therefore, a lithium-sulfur-cell was built into
the in-situ sample cell. With this setting a diffusion coeffcient as well as a NMR spectrum
before and after 90 minutes of charging were measured.

File: LiCoO2 vs Li_02_CV_C01_loop4.mpt
EC-Lab ASCII FILE
Nb header lines : 3
mode	ox/red	error	control changes	counter inc.	time/s	control/V	Ewe/V	<I>/mA	cycle number	(Q-Qo)/C	P/W
2	0	0	1	0	6560,51	3,10376644	3,10400128	-0,48510423302650451	5	0	0,0015057642
2	0	0	0	0	6566,29	3,04596066	3,04595852	-0,43688322774445075	5	-0,0024993252	0,00133072818
2	0	0	1	0	6572,09	2,98795509	2,98822737	-0,45078720183422406	5	-0,00507588591	0,00134705461
2	0	0	1	0	6577,89	2,92994976	2,93026567	-0,4643807600562777	5	-0,00773262233	0,00136075902
2	0	0	0	0	6583,69	2,87194419	2,8721633	-0,47767340485006746	5	-0,010467411	0,00137195596
2	0	0	1	0	6589,49	2,81393909	2,81421137	-0,49073284181455891	5	-0,0132792015	0,001381026
2	0	0	0	0	6595,29	2,75593352	2,75613952	-0,5033005947868041	5	-0,0161651708	0,00138716667
2	0	0	0	0	6601,09	2,69792795	2,6982677	-0,51505224375675238	5	-0,0191221889	0,00138974888
2	0	0	1	0	6606,89	2,63992286	2,64016557	-0,52663899554560525	5	-0,0221476126	0,0013904142
2	0	0	0	0	6612,69	2,58191729	2,58215356	-0,53648458685105107	5	-0,0252349712	0,00138528564
2	0	0	0	0	6618,49	2,52391171	2,52395129	-0,54430631610254387	5	-0,0283735208	0,00137380266
2	0	0	1	0	6624,29	2,46590614	2,46643043	-0,54805714481820678	5	-0,0315466858	0,00135174487
2	0	0	0	0	6630,09	2,40790105	2,40812778	-0,54689729074016346	5	-0,0347286649	0,0013169985
2	0	0	0	0	6635,89	2,34989619	2,34999633	-0,53902061299479341	5	-0,0378842205	0,00126669649
2	0	0	1	0	6641,70	2,29188991	2,2921741	-0,52373945744087334	5	-0,0409723483	0,00120050204
2	0	0	0	0	6647,50	2,23388481	2,23410201	-0,50259403605014438	5	-0,0439541638	0,00112284638
2	0	0	1	0	6653,30	2,17587924	2,17609	-0,4785006645446016	5	-0,0468032099	0,00104126055
2	0	0	1	0	6659,10	2,11787391	2,11826825	-0,45488937012851149	5	-0,0495116748	0,00096357771
2	0	0	0	0	6664,90	2,05986857	2,06014609	-0,43404143241544448	5	-0,0520895161	0,000894188765
2	0	0	1	0	6670,70	2,001863	2,00201416	-0,41713804674024454	5	-0,0545584224	0,000835116254
2	0	0	0	0	6676,50	1,94385767	1,94386184	-0,4050902004043255	5	-0,0569439121	0,000787439407
2	0	0	0	0	6682,30	1,88585222	1,88619065	-0,39799469554176013	5	-0,0592736118	0,0007506939
2	0	0	1	0	6688,10	1,827847	1,82814848	-0,39483504230156717	5	-0,0615746565	0,000721817079
2	0	0	0	0	6693,90	1,76984143	1,77010643	-0,39672584412619648	5	-0,0638719052	0,000702246965
2	0	0	0	0	6699,70	1,71183598	1,71223497	-0,40294419011722125	5	-0,066192627	0,000689935114
2	0	0	1	0	6705,50	1,65383065	1,65406251	-0,41467099233220141	5	-0,0685669556	0,000685891719
2	0	0	0	0	6711,30	1,59582531	1,59614086	-0,42530362618466099	5	-0,0710036084	0,000678844517
2	0	0	0	0	6717,10	1,53781962	1,53793824	-0,4408250150172224	5	-0,0735164285	0,000677961623
2	0	0	1	0	6722,90	1,47981453	1,4803977	-0,46232536528259635	5	-0,0761357993	0,000684425409
2	0	0	0	0	6728,70	1,42180908	1,42215514	-0,49307557459299776	5	-0,0789047033	0,000701229961
2	0	0	1	0	6734,50	1,36380363	1,36412311	-0,53542759253954131	5	-0,0818840414	0,000730389147
2	0	0	1	0	6740,30	1,30579817	1,3062315	-0,59699666934708787	5	-0,0851605758	0,000779815833
2	0	0	0	0	6746,11	1,24779296	1,24831975	-0,68384308864672947	5	-0,0888655558	0,000853654812
2	0	0	1	0	6751,91	1,18978739	1,18991685	-0,79827807967861376	5	-0,0931558385	0,000949884532
2	0	0	1	0	6757,71	1,13178194	1,13196504	-0,93389843093852147	5	-0,0981720835	0,00105714041
2	0	0	0	0	6763,55	1,07337654	1,07386279	-1,0954472996915374	5	-0,10408365	0,00117636006
2	0	0	1	0	6769,35	1,01537108	1,01563036	-1,3272987250238693	5	-0,111057371	0,00134804484
2	1	0	0	0	6775,07	1,04177356	1,04192472	-1,0318297467504962	5	-0,118145555	0,00107508886
2	1	0	1	0	6780,87	1,09977889	1,10011697	-0,68966321600600896	5	-0,123063952	0,000758710201
2	1	0	0	0	6786,71	1,15818441	1,15875053	-0,47378853817160051	5	-0,126404449	0,000549002725
2	1	0	1	0	6792,51	1,21618974	1,21653199	-0,33899844080830688	5	-0,128730595	0,000412402442
2	1	0	1	0	6798,31	1,27419531	1,27439356	-0,24764201929792762	5	-0,130411938	0,000315593381
2	1	0	0	0	6804,11	1,33220077	1,33244562	-0,18123816419392867	5	-0,131642297	0,000241489994
2	1	0	1	0	6809,91	1,3902061	1,39055777	-0,12947599291025291	5	-0,132534876	0,000180043848
2	1	0	1	0	6815,71	1,44821143	1,4483192	-0,087383167759981222	5	-0,133157834	0,00012655872
2	1	0	0	0	6821,55	1,50661695	1,50676227	-0,049539911638324608	5	-0,133552462	7,46448713E-005
2	1	0	1	0	6827,35	1,56462228	1,56512499	-0,012515864965583544	5	-0,133730233	1,95888933E-005
2	1	0	0	0	6833,23	1,62342787	1,62385869	0,026850200199987629	5	-0,133687481	4,36009323E-005
2	1	0	0	0	6839,03	1,6814332	1,68177032	0,069977090732815437	5	-0,133406281	0,000117685391
2	1	0	1	0	6844,87	1,73983872	1,740013	0,11466478234312171	5	-0,132864535	0,00019951821
2	1	0	0	0	6850,68	1,79784405	1,79804504	0,16016342712100595	5	-0,132063165	0,000287981064
2	1	0	0	0	6856,48	1,85584962	1,85615718	0,20449251076206531	5	-0,131001517	0,000379570236
2	1	0	1	0	6862,28	1,91385484	1,91400862	0,24540408421307712	5	-0,12969172	0,000469705526
2	1	0	0	0	6868,08	1,97186041	1,97221112	0,28053159623717238	5	-0,128159761	0,000553267542
2	1	0	1	0	6873,88	2,0298655	2,03024364	0,30861786926099731	5	-0,126443803	0,000626569439
2	1	0	1	0	6879,68	2,08787107	2,08821487	0,3284195709663127	5	-0,1245896	0,000685810635
2	1	0	0	0	6885,48	2,14587641	2,1461165	0,34102000622078778	5	-0,122642606	0,000731868669
2	1	0	1	0	6891,28	2,20388198	2,20423889	0,34836334704111008	5	-0,120637976	0,000767876045
2	1	0	1	0	6897,08	2,26188731	2,26202035	0,35305692744441242	5	-0,118599713	0,000798621972
2	1	0	0	0	6902,88	2,31989264	2,32017255	0,35613373379843872	5	-0,116540007	0,00082629174
2	1	0	1	0	6908,68	2,37789822	2,3780942	0,35796367516741158	5	-0,114466831	0,000851271325
2	1	0	1	0	6914,48	2,43590426	2,4364481	0,35948737885796781	5	-0,11238379	0,000875872327
2	1	0	0	0	6920,28	2,49390912	2,49421835	0,36123558001903168	5	-0,11029093	0,0009010004
2	1	0	1	0	6926,08	2,55191445	2,55227065	0,36354968448479853	5	-0,108186953	0,000927877205
2	1	0	0	0	6931,88	2,60991979	2,61033273	0,36721824621781619	5	-0,106065013	0,000958561781
2	1	0	0	0	6937,68	2,66792512	2,66798377	0,37425745542471578	5	-0,103913136	0,000998512842
2	1	0	1	0	6943,48	2,72593069	2,72619629	0,3850306655901168	5	-0,101709776	0,00104966923
2	1	0	0	0	6949,28	2,78393602	2,78412771	0,4005576454413431	5	-0,0994308963	0,0011152036
2	1	0	0	0	6955,09	2,8419416	2,84214997	0,42218288887912922	5	-0,0970469713	0,00119990704
2	1	0	1	0	6960,89	2,89994693	2,90016174	0,45296516238401184	5	-0,0945074037	0,00131367228
2	1	0	0	0	6966,69	2,9579525	2,9580133	0,47833384635547558	5	-0,0918021202	0,00141491788
2	1	0	1	0	6972,49	3,01595759	3,0161159	0,50523834722116678	5	-0,0889480636	0,00152385747
2	1	0	1	0	6978,29	3,07396317	3,0741477	0,53437506593763693	5	-0,0859320462	0,0016427479
2	1	0	0	0	6984,09	3,1319685	3,13212943	0,56634853485350688	5	-0,0827384144	0,00177387695
2	1	0	1	0	6989,89	3,18997383	3,19009113	0,60153519206990861	5	-0,0793493912	0,0019189521
2	1	0	0	0	6995,69	3,24798036	3,24796319	0,6395726369225088	5	-0,0757483095	0,00207730848
2	1	0	0	0	7001,49	3,3059845	3,30608511	0,67816681213055795	5	-0,0719246194	0,00224207714
2	1	0	1	0	7007,29	3,36398983	3,3640871	0,71709257829934093	5	-0,0678750351	0,00241236179
2	1	0	0	0	7013,09	3,42199564	3,42220902	0,75516486788789376	5	-0,0636028275	0,00258433213
2	1	0	0	0	7018,89	3,48000073	3,4802711	0,79404476067671936	5	-0,0591072962	0,00276349112
2	1	0	1	0	7024,69	3,53800607	3,53837347	0,83684733696281907	5	-0,0543762669	0,00296107843
2	1	0	0	0	7030,49	3,59601188	3,59631538	0,88675485954930445	5	-0,0493780859	0,00318905013
2	1	0	1	0	7036,29	3,65401793	3,65400815	0,94564871498171238	5	-0,0440636091	0,00345540815
2	1	0	1	0	7042,13	3,71242261	3,71271014	1,0156260381142275	5	-0,0383389331	0,0037707251
2	1	0	0	0	7047,93	3,77042794	3,77057195	1,0945532709980981	5	-0,0322213806	0,00412709173
2	1	0	1	0	7053,73	3,82843351	3,82866406	1,1877208886047179	5	-0,025605157	0,0045473841
2	1	0	1	0	7059,53	3,88643885	3,88663578	1,297853217460215	5	-0,0184013695	0,00504428288
2	1	0	0	0	7065,34	3,94444418	3,94462752	1,4286873651047501	5	-0,0105016818	0,00563563965
2	1	0	1	0	7071,14	4,00244999	4,00260925	1,5936463903635706	5	-0,00175439881	0,0063787438
2	1	0	0	0	7076,94	4,0604558	4,06049395	1,8143124026964691	5	0,00810295995	0,00736700464
2	1	0	0	0	7082,74	4,11846066	4,11873341	2,1068090864767549	5	0,0194415133	0,00867738482
2	1	0	1	0	7088,54	4,17646551	4,17673588	2,4833338210980115	5	0,0327131823	0,0103722299
2	0	0	1	1	7094,27	4,16616535	4,16623878	2,1478676126864896	5	0,0468020327	0,00894852914
2	0	0	0	1	7100,07	4,10815954	4,10832834	1,5012489277869462	5	0,0572980493	0,00616762368
2	0	0	1	1	7105,87	4,05015421	4,05033636	1,002102883843083	5	0,0644923151	0,00405885372
2	0	0	0	1	7111,67	3,99214864	3,99239469	0,61853288812562739	5	0,0691367686	0,00246942742
2	0	0	0	1	7117,51	3,93374372	3,93401217	0,32788258160720838	5	0,0718534738	0,00128989411
2	0	0	1	1	7123,31	3,87573791	3,87604976	0,11971442898114493	5	0,0731116012	0,000464019075
2	0	0	0	1	7129,23	3,81653214	3,81651425	-0,028167419368401226	5	0,0733516812	0,000107501357
2	0	0	1	1	7135,07	3,75812674	3,75832152	-0,13316592884560485	5	0,0728634745	0,000500480353
2	0	0	1	1	7140,87	3,7001214	3,70048022	-0,21596462535671978	5	0,0718398765	0,000799172849
2	0	0	0	1	7146,67	3,64211607	3,64230776	-0,28581211064010915	5	0,0703760609	0,00104101561
2	0	0	1	1	7152,47	3,58411074	3,58419561	-0,34619045412788941	5	0,0685348138	0,00124081434
2	0	0	0	1	7158,27	3,52610445	3,52619219	-0,39685754166611174	5	0,0663718507	0,00139939599
2	0	0	0	1	7164,08	3,46809983	3,46834207	-0,43737837594623373	5	0,0639451444	0,00151697779
2	0	0	1	1	7169,88	3,4100945	3,41016984	-0,46747177653014662	5	0,061313618	0,00159415812
2	0	0	0	1	7175,68	3,35208869	3,35226798	-0,4886943482172992	5	0,0585333034	0,00163823436
2	0	0	0	1	7181,48	3,29408336	3,2943964	-0,50227463633442906	5	0,0556532778	0,00165469176
2	0	0	1	1	7187,28	3,23607802	3,2361238	-0,50939666836832973	5	0,0527133048	0,00164847064
2	0	0	0	1	7193,08	3,17807269	3,17820215	-0,51292466636126163	5	0,0497433282	0,0016301783
2	0	0	0	1	7198,88	3,12006783	3,12033129	-0,51348648632593094	5	0,0467622392	0,00160224794
2	0	0	1	1	7200,45	3,10436654	3,10464287	-0,51360978592525971	5	0,0459551103	0,00159457501

File: LiCoO2 vs Li_02_CV_C01_loop7.mpt
EC-Lab ASCII FILE
Nb header lines : 3
mode	ox/red	error	control changes	counter inc.	time/s	control/V	Ewe/V	<I>/mA	cycle number	(Q-Qo)/C	P/W
2	0	0	1	0	8480,84	3,10466647	3,10504365	-0,80122458934783936	8	0	0,00248783734
2	0	0	0	0	8486,62	3,04686069	3,04719162	-0,66482567166288614	8	-0,0039309836	0,00202585128
2	0	0	1	0	8492,42	2,98885512	2,98913956	-0,6472462858073431	8	-0,00773808407	0,00193470949
2	0	0	1	0	8498,22	2,93084979	2,9312079	-0,63329108478501619	8	-0,0114533417	0,00185630785
2	0	0	0	0	8504,02	2,87284422	2,87315583	-0,62249372946098445	8	-0,0150960386	0,00178852153
2	0	0	1	0	8509,82	2,81483912	2,81483293	-0,61468587691585344	8	-0,0186849367	0,00173023809
2	0	0	0	0	8515,62	2,75683355	2,75707173	-0,60802679524446426	8	-0,0222327318	0,00167637353
2	0	0	0	0	8521,42	2,69882822	2,69898963	-0,60347110033035315	8	-0,0257487744	0,00162876223
2	0	0	1	0	8527,22	2,64082289	2,64098763	-0,59971954285477837	8	-0,0292413104	0,00158385187
2	0	0	0	0	8533,02	2,58281732	2,58299589	-0,59551646622518822	8	-0,0327114835	0,0015382166
2	0	0	0	0	8538,82	2,52481198	2,52503395	-0,58991954801604147	8	-0,0361543223	0,00148956687
2	0	0	1	0	8544,62	2,46680641	2,46719241	-0,58086096774786624	8	-0,0395552106	0,00143309578
2	0	0	0	0	8550,42	2,40880108	2,40907001	-0,56686425193523379	8	-0,0428898893	0,00136561564
2	0	0	0	0	8556,22	2,35079622	2,35074687	-0,54609950366743123	8	-0,0461234339	0,00128374167
2	0	0	1	0	8562,03	2,29279041	2,29314637	-0,51957474229857325	8	-0,0492195189	0,00119146099
2	0	0	0	0	8567,83	2,23478484	2,234864	-0,49076924038429984	8	-0,052153185	0,00109680253
2	0	0	1	0	8573,63	2,17677927	2,17682171	-0,46363916682700282	8	-0,0549221709	0,00100925984
2	0	0	1	0	8579,43	2,11877394	2,11881995	-0,44085622361550803	8	-0,0575454943	0,000934094947
2	0	0	0	0	8585,23	2,0607686	2,06108856	-0,42450224499528666	8	-0,0600556955	0,000874936697
2	0	0	1	0	8591,03	2,00276303	2,00313687	-0,41446168053274234	8	-0,0624890737	0,000830223493
2	0	0	0	0	8596,83	1,9447577	1,94514501	-0,4099247058232631	8	-0,0648796186	0,000797362998
2	0	0	0	0	8602,63	1,88675237	1,8869524	-0,40955383346105555	8	-0,0672571361	0,000772808562
2	0	0	1	0	8608,43	1,82874703	1,82882023	-0,41255127778276845	8	-0,0696429089	0,000754482113
2	0	0	0	0	8614,23	1,77074158	1,77109909	-0,4194644894450912	8	-0,0720574036	0,000742913166
2	0	0	0	0	8620,03	1,71273601	1,71303689	-0,42923887167126118	8	-0,0745213255	0,000735302048
2	0	0	1	0	8625,83	1,65473068	1,65534568	-0,44156676111743034	8	-0,0770511925	0,000730945612
2	0	0	0	0	8631,63	1,59672534	1,59718335	-0,45370851022501843	8	-0,0796509087	0,000724655692
2	0	0	0	0	8637,43	1,53871989	1,53900111	-0,46996621803070138	8	-0,0823314488	0,000723278557
2	0	0	1	0	8643,23	1,48071456	1,4810493	-0,49036245498185235	8	-0,0851171762	0,00072625099
2	0	0	0	0	8649,03	1,42270911	1,42293704	-0,5179898889424912	8	-0,0880409926	0,000737067021
2	0	0	1	0	8654,83	1,36470366	1,36481476	-0,55572330113500358	8	-0,0911531895	0,000758459384
2	0	0	1	0	8660,63	1,30669832	1,30701339	-0,61134792414183002	8	-0,0945312753	0,000799039903
2	0	0	0	0	8666,44	1,24869299	1,24883103	-0,69143820057312704	8	-0,0983001068	0,000863489462
2	0	0	1	0	8672,24	1,19068742	1,19089925	-0,79690061012903962	8	-0,102609873	0,000949028356
2	0	0	1	0	8678,04	1,13268209	1,13309789	-0,92179124212513126	8	-0,107590988	0,00104447966
2	0	0	0	0	8683,88	1,07427657	1,07458472	-1,064779748519265	8	-0,113386437	0,00114419602
2	0	0	1	0	8689,68	1,01627123	1,01648235	-1,2360650130237154	8	-0,120043024	0,00125643832
2	1	0	0	0	8695,44	1,04127347	1,04140341	-0,85966649806748314	8	-0,12635757	0,000895259611
2	1	0	1	0	8701,24	1,09927893	1,0995357	-0,54993349950139782	8	-0,130360335	0,000604671543
2	1	0	0	0	8707,07	1,15758443	1,15804887	-0,36547860107384531	8	-0,132980764	0,000423242076
2	1	0	0	0	8712,87	1,21558988	1,21584034	-0,24864633784939994	8	-0,134734228	0,000302314234
2	1	0	1	0	8718,67	1,27359521	1,27387226	-0,16855882538948253	8	-0,135926843	0,000214722415
2	1	0	0	0	8724,47	1,33160055	1,33176398	-0,11014992215981078	8	-0,136723116	0,000146693696
2	1	0	1	0	8730,27	1,389606	1,3899864	-0,065033999213483187	8	-0,137222201	9,03963737E-005
2	1	0	1	0	8736,11	1,4480114	1,44836938	-0,02845552668441087	8	-0,137488738	4,12141126E-005
2	1	0	0	0	8741,95	1,50641692	1,50664186	0,002896492182117072	8	-0,137559518	4,36397659E-006
2	1	0	1	0	8747,79	1,56482232	1,56512499	0,030337534039669325	8	-0,137459993	4,74820336E-005
2	1	0	1	0	8753,59	1,62282789	1,62303686	0,056435135445402016	8	-0,137205809	9,15963028E-005
2	1	0	0	0	8759,39	1,6808331	1,68086803	0,082185409769105331	8	-0,136801109	0,00013814283
2	1	0	1	0	8765,23	1,73923874	1,7393713	0,10852573552013678	8	-0,136240005	0,000188766557
2	1	0	0	0	8771,04	1,79724395	1,79767394	0,1359503758916012	8	-0,135527208	0,00024439444
2	1	0	0	0	8776,84	1,8552494	1,85525501	0,16281403608930602	8	-0,134656101	0,000302061555
2	1	0	1	0	8782,64	1,91325486	1,91362774	0,18951669296560224	8	-0,133628994	0,000362664403
2	1	0	0	0	8788,44	1,97126019	1,9717499	0,21312220285957018	8	-0,132456765	0,000420223689
2	1	0	1	0	8794,24	2,0292666	2,02950335	0,23325407843929914	8	-0,131157339	0,000473389926
2	1	0	1	0	8800,04	2,08727098	2,08758354	0,24956634594127504	8	-0,129751787	0,000520990579
2	1	0	0	0	8805,84	2,14527655	2,14564538	0,26310384320095203	8	-0,128260344	0,000564527523
2	1	0	1	0	8811,64	2,20328188	2,20343685	0,27345312153920442	8	-0,126699761	0,00060253666
2	1	0	1	0	8817,44	2,26128745	2,26158905	0,2819198408008865	8	-0,125085041	0,000637586811
2	1	0	0	0	8823,24	2,31929255	2,31940055	0,28835768229328096	8	-0,123426877	0,000668816967
2	1	0	1	0	8829,04	2,37729812	2,37740278	0,29403290858802714	8	-0,121734567	0,000699034659
2	1	0	1	0	8834,84	2,43530345	2,43558502	0,29878062227119949	8	-0,120013021	0,000727705599
2	1	0	0	0	8840,64	2,49330902	2,49361706	0,30308895185589792	8	-0,118264824	0,000755787769
2	1	0	1	0	8846,44	2,55131459	2,55161881	0,30716707510873587	8	-0,116492674	0,000783773314
2	1	0	0	0	8852,24	2,60931969	2,60960102	0,31208847059557779	8	-0,114693582	0,000814426399
2	1	0	0	0	8858,04	2,66732526	2,66733217	0,31935990011940531	8	-0,112861037	0,000851838908
2	1	0	1	0	8863,84	2,72533059	2,72545433	0,3294892571866512	8	-0,110977948	0,000898007944
2	1	0	0	0	8869,64	2,78333592	2,78361678	0,3433751070406288	8	-0,109024979	0,000955824682
2	1	0	0	0	8875,45	2,8413415	2,84147835	0,36577751177052685	8	-0,106971152	0,00103934889
2	1	0	1	0	8881,25	2,89934683	2,89951038	0,39656430979569766	8	-0,10475383	0,00114984228
2	1	0	0	0	8887,05	2,9573524	2,95750213	0,41938665990407251	8	-0,102386028	0,00124033692
2	1	0	1	0	8892,85	3,01535773	3,01547408	0,44767004370689446	8	-0,0998708755	0,0013499374
2	1	0	1	0	8898,65	3,07336307	3,07358623	0,48126655273760518	8	-0,097176753	0,00147921429
2	1	0	0	0	8904,45	3,13136816	3,13181877	0,52117680696149549	8	-0,0942695737	0,00163223129
2	1	0	1	0	8910,25	3,18937373	3,18950963	0,56649299074585357	8	-0,0911147222	0,00180683483
2	1	0	1	0	8916,05	3,24737787	3,2475512	0,61571369793509056	8	-0,0876837447	0,00199956167
2	1	0	0	0	8921,85	3,3053844	3,30525279	0,66439760072777677	8	-0,0839675143	0,00219600205
2	1	0	1	0	8927,65	3,36339021	3,36363554	0,70898060997326963	8	-0,0799793452	0,00238475227
2	1	0	0	0	8933,45	3,42139554	3,42166781	0,74846963987996237	8	-0,0757479668	0,00256101438
2	1	0	0	0	8939,25	3,47940087	3,47953939	0,78661973526080512	8	-0,0712938756	0,00273707439
2	1	0	1	0	8945,05	3,53740621	3,53754187	0,82970813599725798	8	-0,066607058	0,00293512736
2	1	0	0	0	8950,85	3,59541178	3,59554362	0,88315214309841395	8	-0,0616418011	0,00317541207
2	1	0	0	0	8956,65	3,65341806	3,65353584	0,9489713382926039	8	-0,0563289411	0,00346710091
2	1	0	1	0	8962,49	3,71182251	3,7118783	1,0305258315056598	8	-0,0505523458	0,00382518652
2	1	0	0	0	8968,29	3,76982784	3,7700603	1,1254382239033749	8	-0,0443037339	0,00424297014
2	1	0	1	0	8974,09	3,82783318	3,82791185	1,2351873380442448	8	-0,0374612175	0,00472818827
2	1	0	1	0	8979,89	3,88583899	3,88615465	1,3612624481320443	8	-0,0299346764	0,0052900766
2	1	0	0	0	8985,70	3,94384408	3,94396591	1,5067372020954829	8	-0,0216235612	0,00594252022
2	1	0	1	0	8991,50	4,00184965	4,00212812	1,689166252811752	8	-0,0123738246	0,00676025962
2	1	0	1	0	8997,30	4,05985403	4,06001902	1,9281533906434349	8	-0,00190940755	0,007828339
2	1	0	0	0	9003,10	4,11786032	4,11818218	2,2398651080826931	8	0,0101449937	0,00922417268
2	1	0	1	0	9008,90	4,17586565	4,17607403	2,6437194993098458	8	0,0242650565	0,0110403681
2	0	0	0	1	9014,64	4,16666508	4,166852	2,2696116864518531	8	0,0392946377	0,00945713557
2	0	0	0	1	9020,44	4,10865974	4,10890961	1,541120076241592	8	0,0502450243	0,00633232296
2	0	0	1	1	9026,24	4,05065441	4,05072737	0,98337356808285043	8	0,0574912801	0,00398337841
2	0	0	0	1	9032,04	3,9926486	3,99278545	0,55673547539239187	8	0,0618975759	0,00222292519
2	0	0	0	1	9037,88	3,9342432	3,93454313	0,23083244535761539	8	0,0641466901	0,000908220187
2	0	0	1	1	9043,72	3,87583804	3,87571931	-0,013345228173420765	8	0,064742215	5,17223598E-005
2	0	0	0	1	9049,56	3,81743217	3,81749678	-0,1995615855169799	8	0,0640933067	0,000761825708
2	0	0	1	1	9055,36	3,75942683	3,75960493	-0,34629274136386899	8	0,0624923408	0,00130192388
2	0	0	1	1	9061,16	3,7014215	3,70165277	-0,46922589140012947	8	0,0601142794	0,00173691136
2	0	0	0	1	9066,96	3,64341617	3,64341044	-0,57605767296627117	8	0,0570713952	0,00209881458
2	0	0	1	1	9072,76	3,58541083	3,58555865	-0,66885759681463424	8	0,0534494407	0,00239822804
2	0	0	1	1	9078,56	3,52740526	3,52758718	-0,7435198932265248	8	0,049340494	0,00262283115
2	0	0	0	1	9084,37	3,46939993	3,46943474	-0,79674014418075597	8	0,0448587537	0,00276423804
2	0	0	1	1	9090,17	3,4113946	3,41173363	-0,82656637330849843	8	0,0401356518	0,00282002427
2	0	0	1	1	9095,97	3,35338974	3,35351253	-0,83517473504100787	8	0,0353030376	0,00280076894
2	0	0	0	1	9101,77	3,29538345	3,29571962	-0,82615257147699776	8	0,0304754209	0,00272276718
2	0	0	1	1	9107,57	3,23737812	3,23763728	-0,80498695994417075	8	0,0257380027	0,0026062557
2	0	0	0	1	9113,37	3,17937279	3,17955565	-0,77762306481599808	8	0,0211435817	0,00247249589
2	0	0	0	1	9119,17	3,12136745	3,12161398	-0,74817867670208218	8	0,0167152751	0,00233552512
2	0	0	0	1	9120,77	3,10526657	3,10568523	-0,74150807016036096	8	0,0155211259	0,00230289064