Folder: thesis/Experimentelles/Rohdaten/Batterietests/AlteZelle/Studenten_Batterietests/Sonstige/ECLab-Export (part 4)

File: S vs Li_02_CV_C02_loop1.mpt
EC-Lab ASCII FILE
Nb header lines : 3
mode	ox/red	error	control changes	counter inc.	time/s	control/V	Ewe/V	<I>/mA	cycle number	(Q-Qo)/C	P/W
2	0	0	1	0	4340,20	2,39045238	2,39110208	-0,072990015149116518	2	0	0,000174526576
2	0	0	0	0	4346,72	2,325243	2,32545114	-0,61249031530072525	2	-0,00215717917	0,00142431632
2	0	0	0	0	4353,25	2,25993419	2,26057172	-1,2777938010791949	2	-0,00826891046	0,00288854446
2	0	0	1	0	4359,75	2,19492507	2,19548202	-2,0094081442803146	2	-0,0189516339	0,00441161962
2	0	0	1	0	4366,25	2,12991619	2,13046241	-2,7575113407025818	2	-0,0344389193	0,00587477442
2	0	0	0	0	4372,75	2,06490755	2,06543303	-3,5391737557947635	2	-0,0548821054	0,00730992621
2	0	0	0	0	4379,25	1,99989855	2,00036359	-4,3281992884973734	2	-0,0804777369	0,00865797233
2	0	0	1	0	4385,75	1,93488967	1,93518353	-5,0644427140553818	2	-0,111149661	0,00980062596
2	0	0	1	0	4392,25	1,86988068	1,87053454	-5,6550560370087552	2	-0,145704493	0,0105779776
2	0	0	0	0	4398,75	1,8048718	1,80530465	-6,337825020154327	2	-0,184716508	0,0114417048
2	0	0	0	0	4405,25	1,73986292	1,74044538	-6,9281767234206336	2	-0,227824181	0,0120581128
2	0	0	0	0	4411,76	1,67485392	1,67525554	-7,4591896037260595	2	-0,274633914	0,0124960486
2	0	0	1	0	4418,26	1,60984504	1,61042619	-7,937758199870615	2	-0,324693561	0,0127831735
2	0	0	1	0	4424,76	1,54483616	1,54523647	-8,4196253170569869	2	-0,377918243	0,0130103119
2	0	0	0	0	4431,26	1,47982717	1,48024702	-8,8437989751498099	2	-0,433956057	0,0130910072
2	0	0	0	0	4437,76	1,41481841	1,4153775	-9,199965265889943	2	-0,492686242	0,0130214235
2	0	0	1	0	4444,26	1,34980929	1,35032797	-9,609733723104	2	-0,55369693	0,0129762925
2	0	0	1	0	4450,76	1,28480053	1,28538859	-9,951107680797577	2	-0,617321491	0,0127910404
2	0	0	0	0	4457,29	1,2194916	1,21990836	-10,295376194020122	2	-0,683285654	0,0125594158
2	0	0	0	0	4463,79	1,1544826	1,15498888	-10,372482240200014	2	-0,750401735	0,0119801015
2	0	0	1	0	4470,29	1,08947361	1,08992922	-10,536166866620392	2	-0,818379104	0,0114836758
2	0	0	1	0	4476,79	1,02446496	1,02503979	-10,634550983707086	2	-0,887257099	0,0109008383
2	0	0	0	0	4483,30	0,959455967	0,95998019	-10,748377042512146	2	-0,956778526	0,010318229
2	0	0	0	0	4489,80	0,894447088	0,894930542	-10,786729757984499	2	-1,02695966	0,00965337362
2	0	0	0	0	4496,30	0,82943821	0,829870999	-10,8112946674228	2	-1,09722114	0,00897197984
2	0	0	1	0	4502,80	0,764429271	0,764941514	-10,805884361267106	2	-1,16740119	0,00826586969
2	0	0	1	0	4509,30	0,699420333	0,699901938	-10,826606142024246	2	-1,23774171	0,0075775627
2	0	0	0	0	4515,80	0,634411395	0,634832323	-10,7551189661026	2	-1,30793321	0,00682769716
2	0	0	0	0	4522,30	0,569402516	0,569962919	-10,637250858048595	2	-1,37756526	0,00606283871
2	0	0	1	0	4528,80	0,504393637	0,504833221	-10,485692034165069	2	-1,44625843	0,00529352576
2	1	0	0	0	4535,22	0,559801161	0,560379684	-9,4640167405208192	2	-1,51015842	0,00530344248
2	1	0	0	0	4541,72	0,624810159	0,625389278	-8,8056872189044954	2	-1,56935513	0,00550698256
2	1	0	1	0	4548,22	0,689818978	0,690428853	-8,3153971508145114	2	-1,62497604	0,00574119017
2	1	0	1	0	4554,73	0,754827917	0,75527823	-7,8793454344073997	2	-1,67756963	0,00595109817
2	1	0	0	0	4561,23	0,819836795	0,820197582	-7,4809339096148621	2	-1,72744787	0,00613584369
2	1	0	0	0	4567,73	0,884845734	0,885547698	-7,1014453619718835	2	-1,7748245	0,00628866861
2	1	0	1	0	4574,23	0,949854672	0,95032686	-6,7142149806022643	2	-1,81972063	0,00638069864
2	1	0	1	0	4580,73	1,01486349	1,01547658	-6,3088966508706509	2	-1,86207306	0,00640653679
2	1	0	0	0	4587,23	1,07987225	1,08034599	-5,9050618124504832	2	-1,90181017	0,00637950981
2	1	0	0	0	4593,73	1,14488125	1,14552581	-5,4811250194907187	2	-1,93887818	0,00627877004
2	1	0	1	0	4600,23	1,20989025	1,21049523	-5,0352969976762976	2	-1,97307682	0,00609520311
2	1	0	1	0	4606,77	1,27529919	1,27586532	-4,6158237295846086	2	-2,00465608	0,00588916941
2	1	0	0	0	4613,27	1,34030819	1,34078479	-4,1840511187911174	2	-2,03323412	0,00560991187
2	1	0	0	0	4619,77	1,40531695	1,40570438	-3,7472257850070886	2	-2,05900383	0,00526749156
2	1	0	1	0	4626,28	1,47032595	1,47095406	-3,3458014540374208	2	-2,08205152	0,00492152013
2	1	0	1	0	4632,78	1,53533494	1,53578341	-2,9530849549919418	2	-2,1025188	0,00453529879
2	1	0	1	0	4639,28	1,6003437	1,60084307	-2,5706291515380144	2	-2,12046146	0,00411517406
2	1	0	0	0	4645,78	1,66535258	1,66593277	-2,2047376961757728	2	-2,13597918	0,00367294485
2	1	0	0	0	4652,28	1,73036158	1,73058164	-1,847655121857919	2	-2,14915991	0,00319751794
2	1	0	1	0	4658,78	1,79537046	1,79589164	-1,4901451819265894	2	-2,16001892	0,00267613935
2	1	0	1	0	4665,28	1,86037934	1,86087132	-1,14628508749108	2	-2,16859031	0,00213308912
2	1	0	0	0	4671,78	1,92538834	1,92591095	-0,80160622733334733	2	-2,17490911	0,00154382223
2	1	0	0	0	4678,32	1,99079728	1,99126089	-0,46640427550300954	2	-2,17904878	0,000928732567
2	1	0	1	0	4684,82	2,05580616	2,05658078	-0,14248184689010146	2	-2,18101811	0,000293025427
2	1	0	1	0	4691,40	2,12161517	2,12206101	0,17387047945521728	2	-2,1809063	0,000368963752
2	1	0	0	0	4697,91	2,18662405	2,18682027	0,48030794660250285	2	-2,1787746	0,00105034711
2	1	0	0	0	4704,41	2,25163293	2,2521801	0,78162609040737152	2	-2,17466903	0,00176036276
2	1	0	1	0	4710,94	2,31694198	2,31725979	1,0766585633779542	2	-2,16859341	0,00249489769
2	1	0	1	0	4717,44	2,38195109	2,38233972	1,3609180434917426	2	-2,16065621	0,00324216904
2	1	0	0	0	4723,94	2,44696045	2,44744921	1,6531276047835702	2	-2,15086651	0,00404594606
2	1	0	0	0	4730,44	2,51196861	2,51236892	1,957235454271231	2	-2,13912439	0,00491729751
2	1	0	0	0	4736,94	2,57697701	2,57743812	2,2875051393446294	2	-2,12533259	0,00589590287
2	1	0	1	0	4743,44	2,64198661	2,6425581	2,6154628669222077	2	-2,1094265	0,00691151246
2	1	0	1	0	4749,94	2,70699525	2,70747781	2,9489483429739955	2	-2,09134364	0,0079842126
2	1	0	0	0	4756,44	2,77200437	2,77243686	3,2462169056137286	2	-2,07121348	0,00899993163
2	1	0	0	0	4762,94	2,83701324	2,83754659	3,5881875927249498	2	-2,04902196	0,0101816496
2	1	0	1	0	4769,45	2,90202212	2,90268636	3,8884800958136621	2	-2,02473831	0,0112870382
2	1	0	1	0	4775,95	2,967031	2,96741557	4,2398234220842566	2	-1,99830079	0,0125813177
2	1	0	0	0	4782,45	3,03204012	3,03238511	4,5930171869695187	2	-1,9695735	0,0139277969
2	1	0	0	0	4788,95	3,09704876	3,09772515	4,9720116766790598	2	-1,93849218	0,0154019259
2	1	0	1	0	4795,45	3,16205788	3,16247439	5,4245556431511942	2	-1,90471721	0,0171550177
2	1	0	1	0	4801,95	3,22706652	3,22749376	5,7775664863486925	2	-1,86834097	0,0186470598
2	1	0	0	0	4808,45	3,2920754	3,29250312	6,1417236179113421	2	-1,82961702	0,020221645
2	1	0	0	0	4814,95	3,35708427	3,35756278	6,5689779669046259	2	-1,78830504	0,0220557563
2	1	0	0	0	4821,45	3,42209339	3,42243433	7,2267654491723904	2	-1,74348199	0,0247331299
2	1	0	1	0	4827,95	3,48710227	3,48776221	7,9074069882432666	2	-1,69401586	0,0275791548
2	1	0	1	0	4834,45	3,55211115	3,55252171	8,5452993412812506	2	-1,64068282	0,0303573608
2	1	0	0	0	4840,95	3,61712003	3,6175313	9,0228725721438541	2	-1,5831213	0,0326405242
2	1	0	0	0	4847,50	3,68252897	3,68300152	9,924184692402711	2	-1,5212158	0,0365507863
2	1	0	1	0	4854,00	3,74753809	3,7478807	10,666084532936395	2	-1,4544524	0,039975211
2	1	0	1	0	4860,50	3,81254697	3,81315041	11,529239927728952	2	-1,38209093	0,0439627245
2	1	0	0	0	4867,00	3,87755585	3,87812996	12,452520377934016	2	-1,30287397	0,0482924916
2	1	0	0	0	4873,50	3,94256473	3,9429996	13,328192030390085	2	-1,21922159	0,0525530577
2	1	0	1	0	4880,00	4,0075736	4,00806952	14,229699527223915	2	-1,12955308	0,0570336245
2	1	0	1	0	4886,50	4,07258272	4,07301855	14,908497263987869	2	-1,03492868	0,0607225858
2	1	0	0	0	4893,00	4,13759136	4,13833904	15,378876045346259	2	-0,935989916	0,063643001
2	0	0	0	1	4899,42	4,19819975	4,19879103	16,442489415407152	2	-0,833289027	0,0690385774
2	0	0	1	1	4905,92	4,13319063	4,13360167	15,08396382133168	2	-0,730390966	0,0623510964
2	0	0	1	1	4912,43	4,06818199	4,06861258	13,579255253076554	2	-0,637058556	0,0552487299
2	0	0	0	1	4918,93	4,00317335	4,00364351	12,423927617669051	2	-0,551840901	0,0497409776
2	0	0	0	1	4925,43	3,938164	3,93849349	11,282655440270901	2	-0,474716187	0,0444366634
2	0	0	1	1	4931,93	3,87315512	3,87366414	10,13579954226816	2	-0,40494597	0,0392626822
2	0	0	1	1	4938,43	3,80814624	3,80865431	9,0824632073442112	2	-0,342293799	0,0345919617
2	0	0	1	1	4944,93	3,7431376	3,74332356	8,0623868496607821	2	-0,286621779	0,0301801227
2	0	0	0	1	4951,43	3,67812848	3,67843509	7,2225586300094733	2	-0,236587524	0,0265677124
2	0	0	0	1	4957,93	3,61311936	3,61389613	6,2497019457320243	2	-0,192554548	0,0225857738
2	0	0	1	1	4964,43	3,54811049	3,54837584	5,468869719654311	2	-0,154630214	0,0194056053
2	0	0	1	1	4970,97	3,48270154	3,4832561	4,788817511250585	2	-0,121176787	0,0166806784
2	0	0	0	1	4977,47	3,4176929	3,41811657	4,2577236245075622	2	-0,091789946	0,014553396
2	0	0	0	1	4983,97	3,35268402	3,35333753	3,7738660797476768	2	-0,0657448545	0,0126550468
2	0	0	1	1	4990,48	3,28767467	3,28820753	3,3370835048456941	2	-0,0426369235	0,0109730233
2	0	0	1	1	4996,98	3,22266579	3,22351813	2,9838991171369946	2	-0,0221222751	0,00961865298
2	0	0	0	1	5003,48	3,15765691	3,15823841	2,6733016489694384	2	-0,00373933674	0,00844292436
2	0	0	0	1	5009,98	3,09264827	3,0931685	2,3920600290099782	2	0,0126926368	0,00739904493
2	0	0	1	1	5016,48	3,02763963	3,0282495	2,1456188367058858	2	0,0274313241	0,00649746927
2	0	0	1	1	5022,98	2,96263051	2,96311975	1,9203006960451584	2	0,0406323262	0,00569008105
2	0	0	0	1	5029,48	2,89762092	2,89821029	1,7045822676776582	2	0,0523903519	0,00494023785
2	0	0	0	1	5035,98	2,83261275	2,83311057	1,5007852225874832	2	0,0627990067	0,00425189035
2	0	0	0	1	5042,48	2,76760364	2,7681911	1,3074244263892382	2	0,0719160885	0,00361920055
2	0	0	1	1	5048,98	2,70259476	2,70312142	1,1196152071158085	2	0,0797972456	0,00302645587
2	0	0	1	1	5055,48	2,63758612	2,63802171	0,92746738127122086	2	0,0864460394	0,00244667917
2	0	0	0	1	5061,99	2,572577	2,57309246	0,72408213171487117	2	0,0918209925	0,00186313025
2	0	0	0	1	5068,53	2,50716805	2,50778246	0,49068899157767731	2	0,0958210975	0,00123054127
2	0	0	1	1	5075,03	2,44215894	2,4427228	0,21150990629879107	2	0,0981403887	0,000516660046
2	0	0	1	1	5080,16	2,39075255	2,39150262	-0,06732798164541065	2	0,0985334292	0,00016101505

File: S vs Li_02_CV_C02_loop5.mpt
EC-Lab ASCII FILE
Nb header lines : 3
mode	ox/red	error	control changes	counter inc.	time/s	control/V	Ewe/V	<I>/mA	cycle number	(Q-Qo)/C	P/W
2	0	0	1	0	7300,63	2,39305282	2,39350533	-0,039676383137702944	6	0	9,49656314E-005
2	0	0	0	0	7307,15	2,32784343	2,32841516	-0,37383512275604058	6	-0,00131541956	0,000870443357
2	0	0	0	0	7313,66	2,26283455	2,26340556	-0,77765331634631168	6	-0,00502572441	0,00176014483
2	0	0	1	0	7320,20	2,1974256	2,19789553	-1,2309082361559085	6	-0,0115943961	0,00270540779
2	0	0	1	0	7326,70	2,13241673	2,13291621	-1,6890692977855542	6	-0,0210701115	0,00360264326
2	0	0	0	0	7333,20	2,06740761	2,06785655	-2,1544969131549152	6	-0,0335253142	0,00445519062
2	0	0	0	0	7339,70	2,00239873	2,00288701	-2,6560980969419069	6	-0,0491496213	0,00531986449
2	0	0	1	0	7346,20	1,93739009	1,93795741	-3,1340075023472416	6	-0,0680030212	0,00607357314
2	0	0	1	0	7352,70	1,87238097	1,87294793	-3,5889154088993965	6	-0,0898972452	0,00672185188
2	0	0	0	0	7359,20	1,80737197	1,80778801	-4,0572821274399757	6	-0,11473342	0,00733470591
2	0	0	0	0	7365,70	1,74236333	1,74275851	-4,3871845304966042	6	-0,142176509	0,00764580304
2	0	0	0	0	7372,20	1,67735422	1,67777908	-4,576116744428887	6	-0,171451345	0,00767771294
2	0	0	1	0	7378,70	1,61234546	1,61300969	-4,8419697818656858	6	-0,202069893	0,00781014422
2	0	0	1	0	7385,21	1,54733658	1,54776001	-5,1448766514659072	6	-0,234544024	0,00796303432
2	0	0	0	0	7391,71	1,48232746	1,48289073	-5,4407572249571533	6	-0,268971115	0,0080680484
2	0	0	0	0	7398,21	1,4173187	1,41788101	-5,7306570373475552	6	-0,305401444	0,00812538993
2	0	0	1	0	7404,71	1,3523097	1,35278141	-5,9645897100369331	6	-0,343400985	0,008068786
2	0	0	1	0	7411,21	1,28730083	1,28771174	-6,1617027993003712	6	-0,382732362	0,00793449674
2	0	0	0	0	7417,71	1,22229195	1,22277224	-6,4357571924726387	6	-0,423631012	0,00786946528
2	0	0	0	0	7424,21	1,15728295	1,15759242	-6,6040493523081242	6	-0,465993553	0,00764479768
2	0	0	1	0	7430,71	1,09227407	1,09276307	-6,7648765022556173	6	-0,509532034	0,00739240739
2	0	0	1	0	7437,21	1,02726519	1,02788365	-6,950541662673175	6	-0,554043949	0,00714434823
2	0	0	0	0	7443,71	0,962256312	0,962804139	-7,0749985203146931	6	-0,599633873	0,00681183767
2	0	0	0	0	7450,21	0,897247434	0,897734404	-7,1038679232200154	6	-0,645703554	0,00637738686
2	0	0	1	0	7456,72	0,832238495	0,832654774	-7,2374434937039846	6	-0,692311585	0,00602629175
2	0	0	1	0	7463,22	0,767229617	0,767805457	-7,3423576479156864	6	-0,739810824	0,0056375023
2	0	0	1	0	7469,72	0,702220678	0,702785909	-7,4862753575047091	6	-0,788056314	0,00526124891
2	0	0	0	0	7476,22	0,6372118	0,637776375	-7,5884758308529856	6	-0,837221742	0,00483975047
2	0	0	0	0	7482,72	0,572202861	0,572716713	-7,7648260196050099	6	-0,887138784	0,00444704574
2	0	0	1	0	7489,22	0,507193983	0,507667065	-8,006678732732951	6	-0,938405156	0,00406472711
2	1	0	0	0	7495,67	0,557300806	0,557836235	-7,4083203275998528	6	-0,988305449	0,00413262937
2	1	0	0	0	7502,17	0,622309804	0,622815728	-6,8580161233743053	6	-1,03472757	0,00427128049
2	1	0	1	0	7508,67	0,687318683	0,6877352	-6,4145701030890342	6	-1,07792509	0,00441152556
2	1	0	1	0	7515,17	0,752327561	0,752945006	-5,999488747368247	6	-1,11822724	0,00451728515
2	1	0	1	0	7521,67	0,817336738	0,817814529	-5,6066877265158157	6	-1,15595269	0,00458523072
2	1	0	0	0	7528,18	0,882345438	0,882863998	-5,2010311509172026	6	-1,19108963	0,00459180307
2	1	0	0	0	7534,68	0,947354257	0,947943568	-4,8770318875710214	6	-1,22383368	0,00462315092
2	1	0	1	0	7541,18	1,01236308	1,01267278	-4,5132079633573773	6	-1,25429928	0,00457040267
2	1	0	1	0	7547,68	1,07737207	1,07782245	-4,1638272615770547	6	-1,28248692	0,00448786654
2	1	0	0	0	7554,18	1,14238083	1,14303231	-3,8179018273949677	6	-1,30841339	0,00436398527
2	1	0	0	0	7560,68	1,20738995	1,20808196	-3,4990011863410618	6	-1,33222401	0,00422708038
2	1	0	1	0	7567,18	1,27239883	1,27306151	-3,2006818217535763	6	-1,35404277	0,00407466479
2	1	0	1	0	7573,68	1,33740771	1,33789086	-2,9019586909562368	6	-1,37388253	0,00388250407
2	1	0	0	0	7580,18	1,40241671	1,40290034	-2,6102552941689901	6	-1,39179862	0,003661928
2	1	0	0	0	7586,68	1,46742547	1,46820033	-2,3135879095643782	6	-1,40782166	0,0033968105
2	1	0	1	0	7593,18	1,53243446	1,53291953	-2,0510126811762746	6	-1,42202199	0,00314403744
2	1	0	1	0	7599,69	1,59744334	1,5980891	-1,7918959334492646	6	-1,43451774	0,00286360946
2	1	0	1	0	7606,19	1,66245222	1,66303861	-1,5624016746878678	6	-1,44542038	0,00259833434
2	1	0	0	0	7612,69	1,72746122	1,72793818	-1,3017041357234155	6	-1,45470583	0,00224926416
2	1	0	0	0	7619,19	1,7924701	1,7926271	-1,0562618598341942	6	-1,4623692	0,00189348368
2	1	0	1	0	7625,69	1,8574791	1,85784709	-0,81894228079666573	6	-1,46846759	0,00152146956
2	1	0	1	0	7632,19	1,92248774	1,92295682	-0,5881397887133079	6	-1,47303939	0,0011309674
2	1	0	0	0	7638,73	1,98789704	1,98853695	-0,36204875578793504	6	-1,47615182	0,000719947333
2	1	0	0	0	7645,23	2,05290556	2,05360675	-0,14669701616124518	6	-1,47780347	0,000301257969
2	1	0	1	0	7651,85	2,11911464	2,11952734	0,066604689112864435	6	-1,47806478	0,000141170458
2	1	0	1	0	7658,39	2,18452382	2,18491745	0,2754165572114289	6	-1,47694445	0,00060176244
2	1	0	0	0	7664,89	2,2495327	2,25009727	0,48335715864474541	6	-1,47447491	0,0010876006
2	1	0	0	0	7671,40	2,31454158	2,3149066	0,69057809266572083	6	-1,47066927	0,00159862381
2	1	0	1	0	7677,90	2,37955046	2,38009644	0,8974991322805463	6	-1,46549475	0,00213613454
2	1	0	1	0	7684,43	2,44485927	2,4453063	1,1203764962653349	6	-1,45889163	0,0027396637
2	1	0	0	0	7690,93	2,50986862	2,5100956	1,3558341671402267	6	-1,4508357	0,00340327341
2	1	0	0	0	7697,43	2,57487726	2,5753355	1,5936684943735565	6	-1,4412595	0,00410423102
2	1	0	1	0	7703,93	2,63988614	2,64044523	1,8363088630139827	6	-1,43013	0,00484867301
2	1	0	1	0	7710,43	2,70489526	2,70531416	2,0862347980340355	6	-1,41739345	0,00564392051
2	1	0	0	0	7716,93	2,76990438	2,77025437	2,3324403807600307	6	-1,40303659	0,00646145316
2	1	0	0	0	7723,43	2,83491278	2,8354938	2,6249934751540422	6	-1,38693464	0,00744315283
2	1	0	0	0	7729,93	2,89992213	2,90064383	2,9132339538385421	6	-1,36892998	0,00845025387
2	1	0	1	0	7736,43	2,96493077	2,965523	3,1664975285530054	6	-1,34915662	0,00939032156
2	1	0	1	0	7742,94	3,02993965	3,03031206	3,4135881910721363	6	-1,32774317	0,0103442371
2	1	0	0	0	7749,44	3,09494877	3,0952518	3,7204928025603258	6	-1,30461276	0,0115158623
2	1	0	0	0	7755,94	3,15995717	3,16055155	3,9940306109686643	6	-1,27957344	0,0126233399
2	1	0	1	0	7762,44	3,22496629	3,22535062	4,2534059261282093	6	-1,25281584	0,0137187252
2	1	0	1	0	7768,94	3,2899754	3,29058051	4,5578599994381152	6	-1,22422326	0,0149980057
2	1	0	0	0	7775,44	3,35498405	3,35538983	4,6267471735676154	6	-1,19365227	0,0155245401
2	1	0	0	0	7781,94	3,41999292	3,42053986	5,2119456777970042	6	-1,16194332	0,0178276673
2	1	0	1	0	7788,44	3,4850018	3,48537922	5,493342785785593	6	-1,12691033	0,0191463828
2	1	0	1	0	7794,94	3,55001092	3,55064893	5,9029726100464397	6	-1,08975255	0,0209593829
2	1	0	1	0	7801,44	3,61501908	3,61556792	6,3039351942805837	6	-1,0499326	0,0227923058
2	1	0	0	0	7807,94	3,68002868	3,68056774	6,7224418943127091	6	-1,00755715	0,0247424021
2	1	0	0	0	7814,44	3,74503732	3,74553823	7,14735775784304	6	-0,962812006	0,0267707016
2	1	0	1	0	7820,95	3,81004643	3,81050706	7,6151038929820058	6	-0,914978921	0,0290174074
2	1	0	1	0	7827,45	3,87505531	3,87558675	8,1351744259396813	6	-0,864079833	0,0315285735
2	1	0	0	0	7833,95	3,94006443	3,94077635	9,2869995782772749	6	-0,807842672	0,0365979895
2	1	0	0	0	7840,49	4,00547314	4,00584602	10,03148378431797	6	-0,744397461	0,0401845798
2	1	0	1	0	7846,99	4,07048225	4,07094574	10,936444272597629	6	-0,676100075	0,0445216708
2	1	0	1	0	7853,49	4,13549089	4,13598537	11,620724439620971	6	-0,602619767	0,0480631478
2	0	0	0	1	7859,94	4,20000076	4,20071507	12,67017129751349	6	-0,52264148	0,0532237813
2	0	0	1	1	7866,42	4,13519144	4,13564491	11,485414209465176	6	-0,444734216	0,0474995933
2	0	0	1	1	7872,92	4,07018232	4,0704751	10,19577053685984	6	-0,373719782	0,0415016301
2	0	0	0	1	7879,42	4,00517321	4,00555611	8,9397055804729178	6	-0,311334461	0,0358084925
2	0	0	0	1	7885,93	3,94016457	3,94053626	7,8413795754313536	6	-0,256998926	0,0308992397
2	0	0	1	1	7892,43	3,87515569	3,87579679	6,7658280804753229	6	-0,209633723	0,0262229741
2	0	0	1	1	7898,93	3,81014633	3,81061721	5,8291708305477952	6	-0,168836057	0,0222127382
2	0	0	0	1	7905,43	3,74513698	3,745646	5,1006259215646778	6	-0,133659214	0,0191051383
2	0	0	0	1	7911,97	3,67972875	3,6801672	4,4352955246965069	6	-0,102509215	0,0163226295
2	0	0	1	1	7918,47	3,61471844	3,61530685	3,911447948832617	6	-0,0753061548	0,0141410846
2	0	0	1	1	7924,97	3,54971099	3,55048871	3,4549786647160768	6	-0,0513767935	0,0122668631
2	0	0	1	1	7931,47	3,48470211	3,48525882	3,0872763829926554	6	-0,0301660113	0,0107599571
2	0	0	0	1	7937,97	3,41969275	3,42023921	2,7737857444832698	6	-0,0111434814	0,00948701054
2	0	0	0	1	7944,47	3,35468411	3,35513973	2,5110499430447818	6	0,00599065097	0,00842492376
2	0	0	1	1	7950,97	3,28967524	3,29023004	2,2761878805855779	6	0,0215327572	0,00748918159
2	0	0	1	1	7957,48	3,22466636	3,22508025	2,082639633988336	6	0,0356870852	0,00671667978
2	0	0	0	1	7963,98	3,15965748	3,16024065	1,8950362571825536	6	0,0486017838	0,00598877063
2	0	0	0	1	7970,48	3,0946486	3,09528184	1,732739238068465	6	0,0603990667	0,00536331628
2	0	0	1	1	7976,98	3,02963948	3,03007174	1,5844497922807949	6	0,0711815208	0,00480099674
2	0	0	1	1	7983,48	2,96463084	2,96516252	1,427303295892969	6	0,0809672549	0,00423218636
2	0	0	0	1	7989,98	2,89962196	2,90023327	1,2875484243656238	6	0,0897767767	0,00373419072
2	0	0	0	1	7996,48	2,83461285	2,83526349	1,1462386818602707	6	0,0976710171	0,00324988877
2	0	0	0	1	8002,98	2,76960468	2,77011395	1,0072814600849931	6	0,104635544	0,00279028434
2	0	0	1	1	8009,48	2,70459509	2,70514417	0,87146635632961805	6	0,110729896	0,00235744216
2	0	0	1	1	8015,98	2,63958621	2,64016461	0,73108673840761139	6	0,115954548	0,00193018932
2	0	0	0	1	8022,48	2,57457733	2,57503533	0,58664230521147507	6	0,120260738	0,00151062466
2	0	0	0	1	8029,02	2,50916815	2,50959492	0,40727596729993818	6	0,123532526	0,00102209765
2	0	0	1	1	8035,53	2,44415951	2,44467545	0,18234663173401078	6	0,125475094	0,000445778336
2	0	0	0	1	8040,60	2,39335299	2,39398599	-0,027288418263196944	6	0,125881031	6,53280877E-005