Folder: thesis/Experimentelles/Rohdaten/Batterietests/AlteZelle/Studenten_Batterietests/Sonstige/ECLab-Export (part 6)

File: S vs Li_05_GCPL_C02_loop8.mpt
EC-Lab ASCII FILE
Nb header lines : 3
mode	ox/red	error	control changes	Ns changes	counter inc.	Ns	time/s	control/V/mA	Ewe/V	dq/mA.h	<I>/mA	P/W	(Q-Qo)/mA.h	x	Capacity/mA.h
1	0	0	1	1	0	1	534002,30	-0,100000001	2,60411215	0	0	0	0	0	0
1	0	0	1	0	0	1	535092,32	-0,100000001	2,19239426	-0,00027771440890679757	-0,099975309858344141	0,000219185298	-0,030269410287532538	0,0011293923954828102	0,030269410287532538
1	0	0	1	0	0	1	536182,34	-0,100000001	2,17398834	-0,0002777138648819592	-0,099975114017735309	0,000217344728	-0,060540251247188262	0,002258838171266096	0,060540251247188262
1	0	0	1	0	0	1	537272,36	-0,100000001	2,15846276	-0,00027771463495741286	-0,099975391239692915	0,000215793159	-0,090811146103712461	0,0033882859580140096	0,090811146103712461
1	0	0	1	0	0	1	538362,38	-0,100000001	2,14238381	-0,0002777147813157903	-0,099975443923064051	0,000214185769	-0,12108205988544558	0,0045177344508869126	0,12108205988544558
1	0	0	1	0	0	1	539452,40	-0,100000001	2,12384439	-0,00027771371046039795	-0,099975058427017139	0,000212331463	-0,15135292439486246	0,0056471811053434496	0,15135292439486246
1	0	0	1	0	0	1	540542,42	-0,100000001	2,10170031	-0,0002777145918173095	-0,099975375709547341	0,000210118276	-0,18162376216428512	0,0067766267620948506	0,18162376216428512
1	0	0	1	0	0	1	541632,44	-0,100000001	2,07661891	-0,00027771365397423507	-0,099975038090052672	0,00020761005	-0,2118946032516679	0,0079060725426438054	0,2118946032516679
1	0	0	1	0	0	1	542722,46	-0,100000001	2,03353214	-0,00027771351332962512	-0,099974987461271526	0,000203302348	-0,2421654224749208	0,0090355175074126758	0,2421654224749208
1	0	0	1	0	0	1	543812,48	-0,100000001	1,99441254	-0,00027771344055980442	-0,099974961264627994	0,000199391317	-0,27243621676371686	0,010164961541843438	0,27243621676371686
1	0	0	1	0	0	1	544902,50	-0,100000001	1,98113739	-0,00027771376842136182	-0,099975079290244634	0,000198064372	-0,30270696878913267	0,011294403999370659	0,30270696878913267
1	0	0	1	0	0	1	545992,52	-0,100000001	1,96978879	-0,00027771328757123814	-0,09997490618977833	0,000196929454	-0,33297772193964314	0,012423846498876675	0,33297772193964314
1	0	0	1	0	0	1	547082,54	-0,100000001	1,96626019	-0,00027771283792538771	-0,09997474432031177	0,000196576366	-0,36324847332978938	0,013553288932701133	0,36324847332978938
1	0	0	1	0	0	1	548172,56	-0,100000001	1,95849729	-0,00027771306160257923	-0,099974824839097152	0,000195800429	-0,39351921571247814	0,014682731030445245	0,39351921571247814
1	0	0	1	0	0	1	549262,58	-0,100000001	1,95229852	-0,00027771249633820525	-0,099974621351235213	0,000195180299	-0,42378996499478336	0,015812173385623322	0,42378996499478336
1	0	0	1	0	0	1	550352,60	-0,100000001	1,95287073	-0,00027771205566616518	-0,099974462712279718	0,000195237197	-0,4540605902299001	0,016941611112434013	0,4540605902299001
1	0	0	1	0	0	1	551442,63	-0,100000001	1,94501245	-0,00027771275203136931	-0,099974713395554278	0,000194452063	-0,48433126675048768	0,018071050752774576	0,48433126675048768
1	0	0	1	0	0	1	552532,65	-0,100000001	1,9431814	-0,00027771300825352474	-0,099974805637289677	0,000194269189	-0,51460195109355155	0,019200490684982246	0,51460195109355155
1	0	0	1	0	0	1	553622,67	-0,100000001	1,9409498	-0,00027771257918907539	-0,09997465117698839	0,000194045773	-0,5448726420097049	0,02032993086244072	0,5448726420097049
1	0	0	1	0	0	1	554712,69	-0,100000001	1,93744028	-0,00027771261851034234	-0,099974665328887168	0,000193694941	-0,57514330159889427	0,021459369871048051	0,57514330159889427
1	0	0	1	0	0	1	555802,71	-0,100000001	1,93108892	-0,00027771167879261904	-0,099974327040350771	0,000193059313	-0,60541394339624192	0,022588808215817843	0,60541394339624192
1	0	0	1	0	0	1	556892,73	-0,100000001	1,92214346	-0,00027771189861992992	-0,09997440617669664	0,000192165156	-0,6356845421229248	0,023718244953563229	0,6356845421229248
1	0	0	1	0	0	1	557982,75	-0,100000001	1,9086777	-0,00027771245072575078	-0,099974604927568435	0,000190819293	-0,66595521369498253	0,024847684409267491	0,66595521369498253
1	0	0	1	0	0	1	559072,77	-0,100000001	1,8820703	-0,00027771238189232016	-0,099974580151490227	0,000188159189	-0,69622585434848781	0,025977122711358989	0,69622585434848781
1	0	0	1	0	0	1	560162,79	-0,100000001	1,82874119	-0,00027771270179210442	-0,099974695313250035	0,000182827847	-0,72649651800647219	0,027106561871778531	0,72649651800647219
1	0	0	1	0	0	1	561252,81	-0,100000001	1,46567941	-0,00027771209046865504	-0,09997447523861312	0,000146530525	-0,75676720928046989	0,028236002062588662	0,75676720928046989
1	0	0	1	0	0	1	562342,83	-0,100000001	1,08976233	-0,00027771229662622016	-0,09997454945627063	0,000108948501	-0,78703786752431526	0,029365441020999398	0,78703786752431526
1	1	0	0	0	0	2	563420,60	0,100000001	2,46644044	0,00027781095774720112	0,1000100667928767	0,000246668875	-0,76752652511495514	0,028637446602427299	0,024725289239493514
1	1	0	0	0	0	2	564510,62	0,100000001	2,43300486	0,00027781209318960707	0,10001047553981027	0,00024332598	-0,73724504615712384	0,027507603908629142	0,055006768197324563
1	1	0	0	0	0	2	565600,64	0,100000001	2,43050623	0,00027781258613450659	0,10001065300129882	0,000243076516	-0,70696349051946317	0,026377758353803453	0,085288323834984704
1	1	0	0	0	0	2	566690,66	0,100000001	2,43514109	0,00027781325887805882	0,10001089518442989	0,000243540635	-0,67668186896014195	0,025247910339351978	0,11556994539430621
1	1	0	0	0	0	2	567780,68	0,100000001	2,43954706	0,0002778126365074681	0,10001067113522443	0,000243980743	-0,64640030602169459	0,024118064512124125	0,14585150833275357
1	1	0	0	0	0	2	568870,70	0,100000001	2,44135904	0,00027781377842856784	0,10001108221910098	0,000244162948	-0,6161186894670729	0,022988216684404717	0,17613312488737552
1	1	0	0	0	0	2	569960,72	0,100000001	2,45139146	0,00027781330248589312	0,10001091088295546	0,000245165895	-0,58583710517463654	0,021858370060430819	0,2064147091798121
1	1	0	0	0	0	2	571050,74	0,100000001	2,44584107	0,00027781262877666291	0,10001066835218682	0,000244610186	-0,55555550690445242	0,020728522914928362	0,23669630744999616
1	1	0	0	0	0	2	572140,76	0,100000001	2,4476912	0,00027781257803365587	0,10001065008504733	0,000244795199	-0,52527393032490874	0,019598676578732864	0,26697788402954026
1	1	0	0	0	0	2	573230,78	0,100000001	2,45354676	0,00027781247965867318	0,10001061467071858	0,00024538071	-0,4949923353520105	0,018468829556256576	0,29725947900243802
1	1	0	0	0	0	2	574320,80	0,100000001	2,45480561	0,00027781303268050157	0,10001081375483835	0,000245507108	-0,46471074936825478	0,017338982869177277	0,32754106498619366
1	1	0	0	0	0	2	575410,82	0,100000001	2,45160127	0,00027781330810570054	0,10001091290604813	0,000245186879	-0,43442911636608486	0,016209134427777734	0,35782269798836365
1	1	0	0	0	0	2	576500,84	0,100000001	2,46224427	0,00027781357953821622	0,10001101061991888	0,000246251526	-0,40414745066341875	0,015079284766278707	0,38810436369102976
1	1	0	0	0	0	2	577590,86	0,100000001	2,45844865	0,00027781288845009274	0,10001076183286618	0,000245871313	-0,37386575910213325	0,013949434139959826	0,4183860552523152
1	1	0	0	0	0	2	578680,88	0,100000001	2,46626878	0,00027781410282436349	0,1000111989993945	0,000246654497	-0,34358406674597421	0,012819583483983146	0,4486677476084743
1	1	0	0	0	0	2	579770,90	0,100000001	2,45799088	0,00027781414471690851	0,10001121408042754	0,000245826639	-0,31330235739725971	0,01168973219399137	0,4789494569571888
1	1	0	0	0	0	2	580860,93	0,100000001	2,46272111	0,00027781322580410378	0,10001088327802965	0,000246298907	-0,28302068429359568	0,010559882256351165	0,50923113006085299
1	1	0	0	0	0	2	581950,95	0,100000001	2,46974015	0,00027781273274372019	0,10001070577962464	0,000247000455	-0,2527390625320249	0,0094300342343534848	0,53951275182242387
1	1	0	0	0	0	2	583040,97	0,100000001	2,47702622	0,00027781337972233693	0,1000109386875531	0,000247729709	-0,22245746275123418	0,008300187032488265	0,5697943516032151
1	1	0	0	0	0	2	584130,99	0,100000001	2,48782158	0,00027781227328711082	0,10001054037835118	0,000248808385	-0,19217587248178707	0,0071703401855040614	0,6000759418726624
1	1	0	0	0	0	2	585221,01	0,100000001	2,48562837	0,00027781285162352854	0,10001074857089499	0,000248589553	-0,16189423057122013	0,0060404914117202445	0,63035758378322893
1	1	0	0	0	0	2	586311,03	0,100000001	2,49590874	0,00027781337201553917	0,10001093591315798	0,00024961817	-0,13161262162337181	0,0049106438678197798	0,66063919273107738
1	1	0	0	0	0	2	587401,05	0,100000001	2,49281883	0,00027781249094050794	0,10001061873210282	0,000249308359	-0,10133097925209485	0,0037807950768462534	0,69092083510235456
1	1	0	0	0	0	2	588491,07	0,100000001	2,49371529	0,00027781281277661523	0,1000107345862688	0,00024939829	-0,071049358093610458	0,0026509470773505389	0,72120245626083866
1	1	0	0	0	0	2	589581,09	0,100000001	2,49886513	0,00027781343592827517	0,10001095892131091	0,000249913894	-0,040767750106602272	0,0015210995693003107	0,75148406424784742
1	1	0	0	0	0	2	590671,11	0,100000001	2,51191139	0,00027781345524224973	0,1000109658742112	0,000251218677	-0,010486117615788118	0,00039125114698013619	0,78176569673866138
1	1	0	0	0	0	2	591761,13	0,100000001	2,52976394	0,00027781334117344688	0,10001092480555624	0,000253004022	0,019795542166803267	-0,00073859829363294118	0,81204735652125286
1	1	0	0	0	0	2	592851,15	0,100000001	2,53382659	0,0002778129897883369	0,10001079831394902	0,00025341002	0,050077200379121882	-0,0018684476756570298	0,84232901473357184
1	1	0	0	0	0	2	593941,17	0,100000001	2,54462218	0,0002778127928401033	0,10001072741391632	0,000254489511	0,080358839561312806	-0,0029982963476414682	0,87261065391576307
1	1	0	0	0	0	2	595031,19	0,100000001	2,55999541	0,00027781343418856461	0,10001095829269837	0,00025602759	0,11064047957636272	-0,0041281450507009952	0,90289229393081331
1	1	0	0	0	0	2	596121,21	0,100000001	2,57855368	0,00027781254679295754	0,1000106388386071	0,000257882813	0,14092212815689974	-0,0052579940733503635	0,9331739425113504
1	1	0	0	0	0	2	597211,23	0,100000001	2,64920163	0,00027781298671083315	0,1000107972060685	0,000264948758	0,17120377894529632	-0,0063878431783779392	0,96345559329974682
1	1	0	0	0	0	2	598301,25	0,100000001	2,81958389	0,00027781354829130896	0,10001099936891499	0,0002819894	0,20148542579244877	-0,0075176921363523981	0,99373724014689907
1	1	0	0	0	0	2	598530,54	0,100000001	2,8453331	0,00025781144539308214	0,10001102763848771	0,000284564681	0,20785513899146365	-0,0077553546999781235	1,0001069533459141

File: S vs Li_05_GCPL_C02_loop9.mpt
EC-Lab ASCII FILE
Nb header lines : 3
mode	ox/red	error	control changes	Ns changes	counter inc.	Ns	time/s	control/V/mA	Ewe/V	dq/mA.h	<I>/mA	P/W	(Q-Qo)/mA.h	x	Capacity/mA.h
1	0	0	1	1	0	1	598530,59	-0,100000001	2,72797465	0	0	0	0	0	0
1	0	0	1	0	0	1	599630,61	-0,100000001	2,18760681	-0,0002777113462434047	-0,099974207324881626	0,000218704256	-0,030546970178444397	0,0011397485281959741	0,030546970178444397
1	0	0	1	0	0	1	600730,63	-0,100000001	2,16738892	-0,00027771165766939523	-0,099974319433805312	0,000216683227	-0,061095278778725261	0,0022795469947101942	0,061095278778725261
1	0	0	1	0	0	1	601830,65	-0,100000001	2,15472436	-0,00027771282863741117	-0,099974740976703002	0,000215418011	-0,09164369728278208	0,0034193495618820627	0,09164369728278208
1	0	0	1	0	0	1	602930,67	-0,100000001	2,13561273	-0,00027771317376900051	-0,09997486522174208	0,000213507592	-0,12219207835252957	0,0045591507323295187	0,12219207835252957
1	0	0	1	0	0	1	604030,69	-0,100000001	2,1195147	-0,00027771283226832749	-0,099974742281480666	0,000211897932	-0,15274053450052742	0,00569895470404744	0,15274053450052742
1	0	0	1	0	0	1	605130,71	-0,100000001	2,09622622	-0,00027771288338137997	-0,099974760684161715	0,000209569713	-0,18328892942830509	0,0068387563915566336	0,18328892942830509
1	0	0	1	0	0	1	606230,73	-0,100000001	2,06799769	-0,00027771258340734576	-0,099974652695537203	0,000206747354	-0,21383731500803184	0,0079785577302774797	0,21383731500803184
1	0	0	1	0	0	1	607330,75	-0,100000001	2,02639866	-0,00027771201918936438	-0,099974449578550349	0,000202588097	-0,24438566304534304	0,0091183576682403251	0,24438566304534304
1	0	0	1	0	0	1	608430,77	-0,100000001	1,98659241	-0,00027771222032234074	-0,09997452198738985	0,000198608628	-0,27493405375234621	0,010258159198266749	0,27493405375234621
1	0	0	1	0	0	1	609530,79	-0,100000001	1,96927381	-0,00027771215979009869	-0,099974500196191898	0,000196877168	-0,30548243320270765	0,011397960308292733	0,30548243320270765
1	0	0	1	0	0	1	610630,81	-0,100000001	1,96109128	-0,00027771258724273907	-0,09997465407392521	0,000196059424	-0,33603077649705754	0,012537760069289315	0,33603077649705754
1	0	0	1	0	0	1	611730,84	-0,100000001	1,95884061	-0,00027771268592278163	-0,099974689600401114	0,00019583448	-0,36657917521594931	0,013677561898250074	0,36657917521594931
1	0	0	1	0	0	1	612830,86	-0,100000001	1,95220315	-0,00027771345883690646	-0,099974967844261184	0,000195171451	-0,39712755535702202	0,014817363034047424	0,39712755535702202
1	0	0	1	0	0	1	613930,88	-0,100000001	1,9469198	-0,0002777136173658073	-0,09997502491010231	0,000194643362	-0,42767595129043507	0,015957164759078227	0,42767595129043507
1	0	0	1	0	0	1	615030,90	-0,100000001	1,94230402	-0,00027771192674049069	-0,099974416299908442	0,000194180713	-0,45822430939043834	0,017096965072493645	0,45822430939043834
1	0	0	1	0	0	1	616130,92	-0,100000001	1,93845117	-0,00027771277341163824	-0,09997472109579808	0,000193796121	-0,48877268712886605	0,018236766118645082	0,48877268712886605
1	0	0	1	0	0	1	617230,94	-0,100000001	1,93631494	-0,00027771250995289952	-0,099974626250105446	0,000193582368	-0,51932111115957491	0,019376568892023766	0,51932111115957491
1	0	0	1	0	0	1	618330,96	-0,100000001	1,93267202	-0,00027771265002215904	-0,099974676676419686	0,000193218264	-0,54986952374918541	0,020516371238519693	0,54986952374918541
1	0	0	1	0	0	1	619430,98	-0,100000001	1,92971563	-0,0002777125550173223	-0,099974642475320678	0,000192922627	-0,58041786378468608	0,021656170877924224	0,58041786378468608
1	0	0	1	0	0	1	620531,00	-0,100000001	1,92487097	-0,00027771273605277142	-0,099974707642203213	0,000192438412	-0,61096625125395123	0,022795972287146291	0,61096625125395123
1	0	0	1	0	0	1	621631,02	-0,100000001	1,9162879	-0,00027771407858985997	-0,099975190951134925	0,000191581246	-0,64151470621027763	0,023935776214401347	0,64151470621027763
1	0	0	1	0	0	1	622731,04	-0,100000001	1,90318453	-0,0002777154935395552	-0,099975700323460173	0,0001902722	-0,67206329661714112	0,025075585195498061	0,67206329661714112
1	0	0	1	0	0	1	623831,06	-0,100000001	1,87766433	-0,00027771604883381059	-0,099975900222146778	0,000187721176	-0,70261200046489869	0,02621539840922705	0,70261200046489869
1	0	0	1	0	0	1	624931,08	-0,100000001	1,78321302	-0,0002777144296231369	-0,099975317320741632	0,000178277289	-0,73316058941399258	0,027355207335932416	0,73316058941399258
1	0	0	1	0	0	1	626031,10	-0,100000001	1,40004802	-0,00027771442904447517	-0,099975317112427328	0,000139970245	-0,76370913824145638	0,028495014765645821	0,76370913824145638
1	0	0	1	0	0	1	627131,12	-0,100000001	1,01516628	-0,00027771560959683523	-0,099975742100968755	0,000101492005	-0,79425778110307917	0,029634825703900128	0,79425778110307917
1	1	0	0	0	0	2	628211,86	0,100000001	2,44330454	0,00027781418527911104	0,10001122868254624	0,000244357885	-0,76594008506663526	0,028578254391233155	0,029170576853773254
1	1	0	0	0	0	2	629311,88	0,100000001	2,4195962	0,00027781378086159626	0,10001108309148198	0,000241986432	-0,73538051981536115	0,027438035923935645	0,059730142105047514
1	1	0	0	0	0	2	630411,90	0,100000001	2,41915751	0,00027781449075332944	0,10001133865119986	0,000241943184	-0,70482093071809741	0,026297816566912205	0,09028973120231063
1	1	0	0	0	0	2	631511,92	0,100000001	2,41885233	0,00027781408450048835	0,10001119240292331	0,000241912305	-0,67426132620776922	0,025157596634806611	0,12084933571263867
1	1	0	0	0	0	2	632611,94	0,100000001	2,42589045	0,00027781338988410106	0,10001094234339096	0,000242615584	-0,64370178972867418	0,024017379241037789	0,15140887219173392
1	1	0	0	0	0	2	633711,96	0,100000001	2,44031	0,00027781347392002742	0,1000109725980849	0,000244057781	-0,6131422668522025	0,022877162354801136	0,18196839506820509
1	1	0	0	0	0	2	634811,98	0,100000001	2,43647623	0,00027781432995448509	0,10001128076470288	0,000243675109	-0,58258274442134566	0,021736945485190973	0,21252791749906218
1	1	0	0	0	0	2	635912,00	0,100000001	2,42934275	0,0002778135719862249	0,10001100789659603	0,000242961018	-0,55202319812614118	0,02059672772516991	0,24308746379426675
1	1	0	0	0	0	2	637012,02	0,100000001	2,43840265	0,00027781293240272333	0,10001077765551608	0,00024386654	-0,52146373331499309	0,019456513005428544	0,27364692860541485
1	1	0	0	0	0	2	638112,04	0,100000001	2,44341898	0,00027781460681599043	0,10001138043297325	0,000244369701	-0,49090419319395136	0,018316295475773795	0,30420646872645715
1	1	0	0	0	0	2	639212,06	0,100000001	2,44811082	0,00027781396495550874	0,10001114936870306	0,000244838389	-0,46034462248907187	0,017176076804994941	0,33476603943133658
1	1	0	0	0	0	2	640312,08	0,100000001	2,45768571	0,00027781267258773248	0,10001068412387571	0,000245794829	-0,42978513485871872	0,016035861233838362	0,36532552706168973
1	1	0	0	0	0	2	641412,10	0,100000001	2,46125245	0,00027781281737817654	0,1000107362474568	0,000246151671	-0,39922564281927827	0,0148956454981728	0,39588501910113024
1	1	0	0	0	0	2	642512,12	0,100000001	2,46809983	0,00027781384304331405	0,10001110547764432	0,000246837386	-0,3686661393688743	0,013755429336748851	0,42644452255153414
1	1	0	0	0	0	2	643612,15	0,100000001	2,47262025	0,00027781169271220762	0,1000103313753107	0,000247287564	-0,33810670540588403	0,012615215767993733	0,45700395651452448
1	1	0	0	0	0	2	644712,17	0,100000001	2,47828507	0,00027781263066165971	0,10001066903077296	0,000247854943	-0,30754738976396582	0,011475006613956899	0,48756327215644262
1	1	0	0	0	0	2	645812,19	0,100000001	2,4864676	0,0002778118019087447	0,10001037068183312	0,000248672557	-0,27698803464362854	0,010334795986927171	0,51812262727677958
1	1	0	0	0	0	2	646912,21	0,100000001	2,49148369	0,00027781268867477773	0,10001068991510326	0,000249175006	-0,24642864107200864	0,0091945839252283891	0,54868202084839936
1	1	0	0	0	0	2	648012,23	0,100000001	2,49638557	0,00027781302389171389	0,10001081059093421	0,000249665551	-0,21586920161587974	0,0080543701515168845	0,57924146030452749
1	1	0	0	0	0	2	649112,25	0,100000001	2,49854088	0,00027781364400850403	0,10001103382995094	0,000249881647	-0,18530973486647363	0,0069141553594565107	0,6098009270539337
1	1	0	0	0	0	2	650212,27	0,100000001	2,49962807	0,00027781402105341354	0,10001116956240531	0,000249990728	-0,15475020311998592	0,0057739381422676314	0,64036045880042189
1	1	0	0	0	0	2	651312,29	0,100000001	2,50954628	0,00027781314815911981	0,10001085532636029	0,000250981859	-0,12419073552947677	0,0046337233188245722	0,67091992639093069
1	1	0	0	0	0	2	652412,31	0,100000001	2,51475334	0,00027781387395825654	0,10001111660565034	0,000251503283	-0,093631276543130278	0,003493508816414391	0,70147938537727731
1	1	0	0	0	0	2	653512,33	0,100000001	2,52217293	0,00027781263526446288	0,10001067068775096	0,000252244208	-0,063071797173004749	0,0023532935534580061	0,73203886474740237
1	1	0	0	0	0	2	654612,35	0,100000001	2,52585411	0,00027781326902202429	0,10001089883618888	0,000252612954	-0,032512358838555814	0,0012130798215978888	0,76259830308185075
1	1	0	0	0	0	2	655712,37	0,100000001	2,53703094	0,00027781333992795808	0,10001092435951722	0,000253730803	-0,0019529251588153392	7,2866263411202342E-005	0,79315773676159155
1	1	0	0	0	0	2	656812,39	0,100000001	2,54183745	0,00027781323541990582	0,10001088673965339	0,000254211423	0,028606566258372435	-0,0010673494490372718	0,82371722817877926
1	1	0	0	0	0	2	657912,41	0,100000001	2,55494094	0,00027781349737031597	0,10001098104003024	0,000255522144	0,059166004266603443	-0,00220756316872576	0,85427666618701005
1	1	0	0	0	0	2	659012,43	0,100000001	2,56873107	0,00027781207241531875	0,10001046806819243	0,000256900006	0,089725400863503309	-0,0033477753433018048	0,88483606278390976
1	1	0	0	0	0	2	660112,46	0,100000001	2,58625937	0,00027781239903511274	0,10001058564678181	0,000258653308	0,12028477358863163	-0,0044879866271899571	0,91539543550903808
1	1	0	0	0	0	2	661212,48	0,100000001	2,63819623	0,00027781288917404083	0,10001076209348259	0,000263848022	0,150844237802992	-0,0056282013246643667	0,94595489972339866
1	1	0	0	0	0	2	662312,50	0,100000001	2,82803345	0,00027781321051054531	0,10001087777012349	0,000282834109	0,1814036879087167	-0,0067684154957266086	0,97651434982912269
1	1	0	0	0	0	2	663161,79	0,100000001	2,93827748	0,00025781132644456294	0,10001098152069538	0,000293860008	0,20499780917817174	-0,0076487438829234086	1,0001084710985778