Folder: thesis/Experimentelles/Rohdaten/Batterietests/AlteZelle/Studenten_Batterietests/Sonstige/ECLab-Export (part 3)

File: LiCoO2 vs Li_05_GCPL_C01_loop9.mpt
EC-Lab ASCII FILE
Nb header lines : 3
mode	ox/red	error	control changes	Ns changes	counter inc.	Ns	time/s	control/V/mA	Ewe/V	dq/mA.h	<I>/mA	P/W	(Q-Qo)/mA.h	x	Capacity/mA.h
1	0	0	1	1	0	1	289704,66	-0,100000001	4,19612217	0	0	0	0	0	0
1	0	0	1	0	0	1	290074,67	-0,100000001	3,82344675	-0,00027771934354884758	-0,099977038628907648	0,000382256898	-0,010274221339117067	0,00038334501199996525	0,010274221339117067
1	0	0	1	0	0	1	290444,68	-0,100000001	3,77807736	-0,00027771912264327213	-0,099976959104431718	0,000377720688	-0,020549841711136362	0,00076674222379853222	0,020549841711136362
1	0	0	1	0	0	1	290814,68	-0,100000001	3,7419498	-0,00027771816213594544	-0,099976613326124288	0,000374107476	-0,030825440454009248	0,0011501386285845662	0,030825440454009248
1	0	0	1	0	0	1	291184,69	-0,100000001	3,70937371	-0,00027771852753601139	-0,099976744867615206	0,000370851107	-0,041101038448052019	0,0015335350054307418	0,041101038448052019
1	0	0	1	0	0	1	291554,70	-0,100000001	3,67866921	-0,00027771940269114243	-0,099977059919723827	0,000367782544	-0,051376653736132026	0,0019169320275406986	0,051376653736132026
1	0	0	1	0	0	1	291924,71	-0,100000001	3,64832735	-0,00027771950562877789	-0,099977096976559091	0,000364749169	-0,061652266883050944	0,0023003289697610566	0,061652266883050944
1	0	0	1	0	0	1	292294,71	-0,100000001	3,61769915	-0,0002777188573338919	-0,099976863590238426	0,000361686223	-0,071927875125528384	0,0026837257289901085	0,071927875125528384
1	0	0	1	0	0	1	292664,72	-0,100000001	3,586097	-0,00027771966034173968	-0,099977152669243264	0,000358527759	-0,082203486173513626	0,0030671225928964288	0,082203486173513626
1	0	0	1	0	0	1	293034,73	-0,100000001	3,55350208	-0,00027771927029929229	-0,099977012259575475	0,000355268508	-0,092479107560131482	0,003450519842551033	0,092479107560131482
1	0	0	1	0	0	1	293404,73	-0,100000001	3,51905489	-0,00027771796487727098	-0,099976542316696512	0,000351822935	-0,10275470603738166	0,0038339162374263258	0,10275470603738166
1	0	0	1	0	0	1	293774,74	-0,100000001	3,48248816	-0,00027771938266977667	-0,099977052712170957	0,000348168891	-0,11303031092128547	0,0042173128713424806	0,11303031092128547
1	0	0	1	0	0	1	294144,75	-0,100000001	3,4428854	-0,00027771949357291062	-0,099977092633038848	0,000344209664	-0,12330594007475861	0,0046007104107888966	0,12330594007475861
1	0	0	1	0	0	1	294514,76	-0,100000001	3,39957809	-0,00027771872100689344	-0,099976814513463949	0,000339878985	-0,13358155272728597	0,0049841073345628416	0,13358155272728597
1	0	0	1	0	0	1	294884,76	-0,100000001	3,35206985	-0,00027771797367019782	-0,099976545482089229	0,000335128367	-0,14385714019392202	0,0053675033186173178	0,14385714019392202
1	0	0	1	0	0	1	295254,77	-0,100000001	3,29942536	-0,00027771903181779715	-0,099976926407890304	0,000329866394	-0,1541327431562632	0,0057508998808373862	0,1541327431562632
1	0	0	1	0	0	1	295624,78	-0,100000001	3,24130034	-0,00027771860625180931	-0,099976773202429107	0,000324054738	-0,16440834267154726	0,0061342963144431206	0,16440834267154726
1	0	0	1	0	0	1	295994,78	-0,100000001	3,17637777	-0,00027771794978901744	-0,099976536882702106	0,000317563245	-0,17468393541113632	0,0065176924952385626	0,17468393541113632
1	0	0	1	0	0	1	296364,79	-0,100000001	3,10320592	-0,00027771928262255258	-0,09997701669586377	0,000310249277	-0,18495952734283082	0,0069010886458903731	0,18495952734283082
1	0	0	1	0	0	1	296734,80	-0,100000001	3,02031493	-0,00027771937845067846	-0,099977051193324838	0,000301962194	-0,19523513019552006	0,0072844852040191808	0,19523513019552006
1	0	0	1	0	0	1	297104,81	-0,100000001	2,92608166	-0,00027771944216680192	-0,099977074126032166	0,000292541081	-0,20551074434641418	0,0076678821836992038	0,20551074434641418
1	0	0	1	0	0	1	297474,81	-0,100000001	2,82048678	-0,00027771886201658186	-0,099976865277138214	0,000281983434	-0,21578634377854061	0,0080512786142022131	0,21578634377854061
1	0	0	1	0	0	1	297844,82	-0,100000001	2,70755959	-0,00027771918387918013	-0,099976981144278682	0,000270693621	-0,22606195059673978	0,0084346753202895283	0,22606195059673978
1	0	0	1	0	0	1	298214,83	-0,100000001	2,59163427	-0,00027771921034943725	-0,099976990678043226	0,000259103806	-0,23633756329214733	0,0088180722456633907	0,23633756329214733
1	0	0	1	0	0	1	298584,83	-0,100000001	2,47559452	-0,00027771946582570672	-0,09997708264772937	0,000247502729	-0,24661317446896595	0,0092014691143766579	0,24661317446896595
1	0	0	1	0	0	1	298954,84	-0,100000001	2,3574543	-0,00027771897164152726	-0,099976904742522534	0,000235690983	-0,25688875641891053	0,0095848648925959578	0,25688875641891053
1	0	0	1	0	0	1	299324,85	-0,100000001	2,21983743	-0,00027771960056200627	-0,099977131147207795	0,000221932976	-0,26716436205403565	0,0099682615545411904	0,26716436205403565
1	0	0	1	0	0	1	299694,86	-0,100000001	2,0077312	-0,00027771865699481635	-0,099976791474215347	0,000200726528	-0,27743998095811555	0,010351658711568965	0,27743998095811555
1	0	0	1	0	0	1	300064,86	-0,100000001	1,74106979	-0,00027771869902519715	-0,099976806604861094	0,000174066605	-0,28771556013923709	0,010735054386479755	0,28771556013923709
1	0	0	1	0	0	1	300434,87	-0,100000001	1,53165591	-0,0002777188932630751	-0,099976876524495334	0,000153130168	-0,29799114944375373	0,011118450439108026	0,29799114944375373
1	1	0	0	0	0	2	300790,72	0,100000001	2,82432389	0,00027783122671892246	0,10001731578994416	0,000282481284	-0,29287384146758982	0,010927516798223602	0,0075014464100210202
1	1	0	0	0	0	2	301160,73	0,100000001	3,03801489	0,00027783193530390662	0,10001757088028413	0,000303854875	-0,2825940775513217	0,010543964985218058	0,017781210326289133
1	1	0	0	0	0	2	301530,74	0,100000001	3,18838739	0,00027783035976853632	0,10001700369847187	0,00031889294	-0,27231430728990547	0,010160412935466504	0,028060980587705546
1	1	0	0	0	0	2	301900,75	0,100000001	3,35376835	0,00027783161575140227	0,10001745583894026	0,000335435383	-0,26203455240741296	0,009776861459523273	0,038340735470198074
1	1	0	0	0	0	2	302270,75	0,100000001	3,4731307	0,0002778310401249263	0,10001724861972762	0,000347372988	-0,2517547944065353	0,0093933098672288986	0,048620493471075635
1	1	0	0	0	0	2	302640,76	0,100000001	3,54786801	0,00027783246658825213	0,10001776213896586	0,000354849821	-0,2414750233465681	0,009009757787682336	0,05890026453104279
1	1	0	0	0	0	2	303010,77	0,100000001	3,59917617	0,00027783190604878794	0,10001756034864419	0,000359980826	-0,23119523946786134	0,0086262052298513651	0,069180048409749632
1	1	0	0	0	0	2	303380,77	0,100000001	3,63791966	0,00027783163263648749	0,10001746191745389	0,000363855477	-0,22091546559782947	0,0082426530454575117	0,079459822279781504
1	1	0	0	0	0	2	303750,78	0,100000001	3,66896796	0,00027783246791652506	0,10001776261364189	0,000366961962	-0,21063569469611686	0,0078591009718156403	0,089739593181494195
1	1	0	0	0	0	2	304120,79	0,100000001	3,69577718	0,0002778319650068879	0,10001758156849416	0,000369642687	-0,20035590923372166	0,0074755483548951245	0,10001937864388938
1	1	0	0	0	0	2	304490,80	0,100000001	3,71958852	0,00027783147631088893	0,10001740564597934	0,000372023584	-0,19007613212304816	0,0070919960495885747	0,11029915575456283
1	1	0	0	0	0	2	304860,80	0,100000001	3,74185324	0,00027783130817653402	0,10001734511877702	0,00037425023	-0,17979636007402227	0,006708443933138903	0,12057892780358877
1	1	0	0	0	0	2	305230,81	0,100000001	3,76285768	0,00027783198380470278	0,10001758833790589	0,000376351963	-0,16951658825144387	0,0063248918251382899	0,13085869962616714
1	1	0	0	0	0	2	305600,82	0,100000001	3,78317451	0,00027783107202168963	0,10001726010001264	0,000378382741	-0,15923682396097654	0,0059413399981708698	0,14113846391663445
1	1	0	0	0	0	2	305970,82	0,100000001	3,80326247	0,00027783100247424512	0,10001723506807203	0,000380391808	-0,14895706810177258	0,0055577884857852205	0,15141821977583843
1	1	0	0	0	0	2	306340,83	0,100000001	3,82314038	0,0002778310525119305	0,10001725308129192	0,000382380007	-0,13867731683821835	0,0051742371448694426	0,16169797103939264
1	1	0	0	0	0	2	306710,84	0,100000001	3,84351444	0,00027783099601128029	0,10001723273679218	0,000384417683	-0,12839757061859869	0,0047906859921496448	0,17197771725901232
1	1	0	0	0	0	2	307080,85	0,100000001	3,86400342	0,00027783176251831984	0,10001750867983491	0,000386467989	-0,1181178135402731	0,0044071344342769293	0,18225747433733792
1	1	0	0	0	0	2	307450,85	0,100000001	3,88556147	0,00027783167518220016	0,10001747723827286	0,000388624059	-0,10783805702252797	0,0040235828973202246	0,19253723085508301
1	1	0	0	0	0	2	307820,86	0,100000001	3,90795994	0,00027783143060488835	0,10001738919213595	0,000390863948	-0,097558291241084838	0,0036400310147224909	0,20281699663652618
1	1	0	0	0	0	2	308190,87	0,100000001	3,9316566	0,00027783198372978304	0,10001758831326397	0,000393234805	-0,087278515269939558	0,0032564787519332717	0,21309677260767136
1	1	0	0	0	0	2	308560,87	0,100000001	3,95659447	0,00027783169796483379	0,10001748543637008	0,000395728624	-0,076998736844470362	0,0028729263975699261	0,22337655103314042
1	1	0	0	0	0	2	308930,88	0,100000001	3,98346114	0,00027783232200311293	0,10001771008466059	0,000398416654	-0,066718963114401408	0,0024893742183982768	0,23365632476320938
1	1	0	0	0	0	2	309300,89	0,100000001	4,01210356	0,0002778315170386599	0,10001742030769458	0,000401280238	-0,056439195745961408	0,0021058222765875574	0,24393609213164941
1	1	0	0	0	0	2	309670,90	0,100000001	4,04257917	0,00027783054417371754	0,10001707008305886	0,000404326915	-0,046159434745190336	0,0017222705723631267	0,25421585313242061
1	1	0	0	0	0	2	310040,90	0,100000001	4,07502127	0,00027783095991528698	0,10001721974248477	0,000407572312	-0,035879682729603827	0,0013387192033880131	0,26449560514800714
1	1	0	0	0	0	2	310410,91	0,100000001	4,10874271	0,00027783180971609216	0,1000175256672128	0,00041094629	-0,025599910128664128	0,00095516706634569446	0,27477537774894688
1	1	0	0	0	0	2	310780,92	0,100000001	4,14286566	0,00027783127183218797	0,10001733203506437	0,000414358365	-0,015320138953936502	0,00057161498251726592	0,28505514892367456
1	1	0	0	0	0	2	311150,92	0,100000001	4,17593765	0,00027783164677396416	0,10001746701150483	0,000417666713	-0,0050403644101213133	0,00018806277298365069	0,29533492346748979
1	1	0	0	0	0	2	311450,96	0,100000001	4,19992208	8,7792661372158272E-007	0,10001703009469451	0,000420063734	0,0032954453912316218	-0,00012295749832030379	0,30367073326884275

File: S vs Li_02_CV_C02_loop0.mpt
EC-Lab ASCII FILE
Nb header lines : 3
mode	ox/red	error	control changes	counter inc.	time/s	control/V	Ewe/V	<I>/mA	cycle number	(Q-Qo)/C	P/W
2	0	0	1	0	3600,06	2,39015245	2,39054132	0,00037633447209373114	1	0	8,99643112E-007
2	0	0	0	0	3606,62	2,32454276	2,32503057	-0,64872944882760435	1	-0,00212964509	0,00150831579
2	0	0	0	0	3613,16	2,25913382	2,25960016	-1,3765636396904846	1	-0,00869363546	0,00311048352
2	0	0	1	0	3619,66	2,19412494	2,1945107	-2,2304399106651402	1	-0,0203540325	0,00489472412
2	0	0	1	0	3626,16	2,12911606	2,1297214	-3,2192996852099968	1	-0,0379763842	0,00685621146
2	0	0	0	0	3632,67	2,06410694	2,06467199	-4,3892012834548947	1	-0,0626385063	0,00906226132
2	0	0	0	0	3639,17	1,99909818	1,99951208	-5,7568751722574515	1	-0,0954463407	0,0115109412
2	0	0	1	0	3645,67	1,9340893	1,93448246	-7,1985286449392448	1	-0,137503833	0,0139254276
2	0	0	1	0	3652,17	1,86908031	1,86952293	-8,4150059123833933	1	-0,188425496	0,0157320462
2	0	0	0	0	3658,67	1,80407143	1,80487406	-9,4411232545971866	1	-0,2461216	0,0170400385
2	0	0	0	0	3665,20	1,73876262	1,73921335	-10,440179650982202	1	-0,311200857	0,0181577001
2	0	0	0	0	3671,70	1,67375374	1,67436409	-11,368402498463818	1	-0,382222593	0,0190348458
2	0	0	1	0	3678,20	1,60874474	1,60908413	-11,994657307863293	1	-0,458222657	0,0193004124
2	0	0	1	0	3684,70	1,54373598	1,54428518	-12,720592096447888	1	-0,538272917	0,0196442213
2	0	0	0	0	3691,20	1,47872698	1,47908533	-13,128934790690757	1	-0,622288823	0,0194188152
2	0	0	0	0	3697,70	1,4137181	1,41419578	-13,505929380655288	1	-0,708798885	0,019100029
2	0	0	1	0	3704,21	1,34870911	1,34904599	-13,652276938160248	1	-0,797595382	0,0184175503
2	0	0	1	0	3710,71	1,28370023	1,28397644	-14,03049402932328	1	-0,887396872	0,018014824
2	0	0	0	0	3717,21	1,21869135	1,21918714	-13,999199365576146	1	-0,978946567	0,0170676447
2	0	0	0	0	3723,71	1,15368247	1,15424776	-13,940092692772566	1	-1,07013571	0,0160903204
2	0	0	1	0	3730,21	1,08867347	1,08883762	-14,06375476717949	1	-1,16168308	0,0153131457
2	0	0	1	0	3736,71	1,02366459	1,02439892	-13,642649764815914	1	-1,25154614	0,013975516
2	0	0	0	0	3743,21	0,958655834	0,959199011	-13,369496345520021	1	-1,33961451	0,0128240073
2	0	0	0	0	3749,71	0,893646896	0,893999219	-13,382601812481878	1	-1,42673111	0,0119640352
2	0	0	0	0	3756,21	0,828637242	0,82934922	-12,910962014605525	1	-1,51186669	0,010707696
2	0	0	1	0	3762,71	0,763629079	0,764170408	-12,522551005085291	1	-1,59433174	0,00956936274
2	0	0	1	0	3769,21	0,698620141	0,699010611	-12,268549563984123	1	-1,67528677	0,00857584644
2	0	0	0	0	3775,71	0,633611202	0,634171307	-12,059861004352528	1	-1,75490582	0,00764801772
2	0	0	0	0	3782,22	0,568602324	0,568781257	-11,508893681069226	1	-1,83110571	0,00654604286
2	0	0	1	0	3788,72	0,503593445	0,50410217	-11,042956193288149	1	-1,90452075	0,00556677813
2	1	0	0	0	3795,16	0,560801268	0,561300933	-9,8571502740184371	1	-1,97145426	0,00553282769
2	1	0	1	0	3801,66	0,625810146	0,626340508	-9,1608983253439718	1	-2,03320503	0,00573784159
2	1	0	1	0	3808,16	0,690819085	0,691560388	-8,6247655202945306	1	-2,09093404	0,005964546
2	1	0	0	0	3814,66	0,755827963	0,7564798	-8,1809757525722381	1	-2,14555955	0,00618874282
2	1	0	0	0	3821,16	0,820836842	0,821228921	-7,7754942526420058	1	-2,19740582	0,00638546096
2	1	0	0	0	3827,66	0,88584578	0,88655901	-7,3867198104659622	1	-2,24665737	0,00654876279
2	1	0	1	0	3834,16	0,950854719	0,951418281	-7,0099547977249011	1	-2,29345059	0,00666939933
2	1	0	1	0	3840,66	1,01586366	1,01645792	-6,6342988709608614	1	-2,3377974	0,00674348557
2	1	0	0	0	3847,17	1,08087242	1,08144748	-6,2719940394163341	1	-2,37978888	0,00678283209
2	1	0	0	0	3853,67	1,1458813	1,14645696	-5,8901434565584051	1	-2,41931176	0,00675279601
2	1	0	1	0	3860,17	1,21089041	1,21164691	-5,5082432441413542	1	-2,45641065	0,00667404616
2	1	0	1	0	3866,67	1,27589905	1,276456	-5,1097258614997402	1	-2,49094319	0,00652234023
2	1	0	0	0	3873,21	1,341308	1,34179604	-4,6788949904342656	1	-2,52296448	0,00627812278
2	1	0	0	0	3879,71	1,406317	1,40674555	-4,2311595318218022	1	-2,55191803	0,005952165
2	1	0	1	0	3886,21	1,47132587	1,47191536	-3,7941437624395034	1	-2,57801247	0,00558465859
2	1	0	1	0	3892,71	1,53633475	1,53687477	-3,360201664268985	1	-2,60124516	0,00516420929
2	1	0	0	0	3899,21	1,60134375	1,60193443	-2,8983025470127686	1	-2,62153411	0,00464289077
2	1	0	0	0	3905,71	1,66635263	1,66693377	-2,4704277745137622	1	-2,63898396	0,00411803927
2	1	0	0	0	3912,21	1,73136127	1,73167264	-2,0603072321780758	1	-2,65369368	0,00356777757
2	1	0	1	0	3918,72	1,79637051	1,79680264	-1,6567311479399613	1	-2,66575122	0,00297681894
2	1	0	1	0	3925,22	1,86137938	1,86181235	-1,2561697966108755	1	-2,67521071	0,00233875238
2	1	0	0	0	3931,72	1,92638814	1,92705238	-0,86104405919710822	1	-2,68208694	0,00165927701
2	1	0	0	0	3938,26	1,99179721	1,9924525	-0,47010832807670176	1	-2,68643284	0,000936668541
2	1	0	1	0	3944,76	2,05680609	2,05739164	-0,088670394519189005	1	-2,6882391	0,000182429721
2	1	0	1	0	3951,34	2,12261486	2,12313247	0,28707235384111661	1	-2,68757796	0,00060949265
2	1	0	0	0	3957,84	2,18762398	2,18820214	0,65316148055717709	1	-2,68452144	0,0014292493
2	1	0	0	0	3964,37	2,25293303	2,25346208	1,020732518906392	1	-2,67905545	0,00230018212
2	1	0	1	0	3970,87	2,3179419	2,31829095	1,3790352158248424	1	-2,67124414	0,00319700479
2	1	0	1	0	3977,37	2,38295078	2,38343072	1,7280488715817555	1	-2,66114378	0,00411868468
2	1	0	0	0	3983,87	2,44795966	2,4483304	2,0774617418646723	1	-2,64878201	0,00508631254
2	1	0	0	0	3990,37	2,51296878	2,51348996	2,4477120103935376	1	-2,63406873	0,0061522997
2	1	0	1	0	3996,88	2,57797742	2,57850957	2,8121293218185456	1	-2,61696315	0,00725110248
2	1	0	1	0	4003,38	2,64298654	2,64337897	3,1822649352252486	1	-2,59747839	0,00841193181
2	1	0	0	0	4009,88	2,70799541	2,70864892	3,5704377137124512	1	-2,57553267	0,00967106223
2	1	0	0	0	4016,38	2,77300429	2,77363849	3,9521807779868397	1	-2,55107069	0,010961921
2	1	0	0	0	4022,88	2,83801317	2,83847761	4,3343252800404774	1	-2,52414083	0,0123028848
2	1	0	1	0	4029,38	2,90302205	2,90357733	4,7358964346349242	1	-2,49465942	0,0137510411
2	1	0	1	0	4035,88	2,96803093	2,96840668	5,1518815209468301	1	-2,46255994	0,0152928792
2	1	0	0	0	4042,38	3,03304005	3,03347635	5,5871180258691309	1	-2,42767406	0,0169483908
2	1	0	0	0	4048,88	3,09804869	3,09847593	6,020369562009961	1	-2,38991952	0,0186539702
2	1	0	1	0	4055,38	3,16305757	3,16375566	6,4951894034941798	1	-2,34923148	0,020549193
2	1	0	1	0	4061,88	3,22806644	3,22826457	6,9855723505218816	1	-2,30540919	0,0225512758
2	1	0	0	0	4068,39	3,29307532	3,29371452	7,4999806632598054	1	-2,25828147	0,0247027948
2	1	0	0	0	4074,89	3,3580842	3,358634	7,9544470931092941	1	-2,20820856	0,0267160758
2	1	0	1	0	4081,39	3,42309308	3,42378378	8,4873837307096102	1	-2,15483522	0,0290589668
2	1	0	1	0	4087,89	3,48810196	3,48877335	9,0155915915966093	1	-2,097821	0,0314533561
2	1	0	0	0	4094,39	3,55311108	3,55373263	9,8357877085606592	1	-2,03646183	0,0349537581
2	1	0	0	0	4100,93	3,61852002	3,61888289	10,67427667727071	1	-1,96962166	0,0386289582
2	1	0	0	0	4107,43	3,68352866	3,68404222	11,126824218764682	1	-1,89908993	0,04099169
2	1	0	1	0	4113,93	3,74853826	3,74895215	11,788989131649296	1	-1,82481015	0,0441963561
2	1	0	1	0	4120,43	3,81354713	3,81426215	12,400014986594499	1	-1,74608111	0,0472969078
2	1	0	0	0	4126,93	3,87855601	3,87908125	13,229227523008944	1	-1,66264451	0,0513172485
2	1	0	0	0	4133,43	3,94356465	3,94405079	13,694326226909981	1	-1,57538772	0,0540111177
2	1	0	1	0	4139,94	4,00857401	4,00894022	14,244852478305462	1	-1,48413754	0,0571067631
2	1	0	1	0	4146,44	4,07358265	4,07414055	14,57370472947751	1	-1,39079714	0,0593753196
2	1	0	0	0	4152,94	4,13859177	4,13915014	15,278609851996038	1	-1,29298103	0,0632404611
2	0	0	0	1	4159,36	4,19719934	4,19769001	15,312238509456307	1	-1,19367421	0,0642760321
2	0	0	1	1	4165,86	4,1321907	4,13262081	13,951683605710685	1	-1,09906399	0,0576570183
2	0	0	1	1	4172,36	4,06718206	4,06748056	12,664739971359552	1	-1,01219499	0,0515135825
2	0	0	1	1	4178,86	4,00217342	4,00266123	11,29637846737225	1	-0,934872925	0,0452155769
2	0	0	0	1	4185,36	3,93716383	3,93760204	10,089392376442731	1	-0,865873098	0,0397280119
2	0	0	1	1	4191,86	3,87215495	3,87274265	9,0039489592114995	1	-0,804192364	0,0348699763
2	0	0	1	1	4198,36	3,80714631	3,80770302	8,2505038380622861	1	-0,748137236	0,0314154699
2	0	0	1	1	4204,86	3,74213815	3,74276447	7,362143625461527	1	-0,697214246	0,0275547691
2	0	0	0	1	4211,37	3,67712808	3,67763376	6,60911067823568	1	-0,652007103	0,0243058894
2	0	0	0	1	4217,87	3,6121192	3,61284447	5,9851218362649229	1	-0,611135602	0,0216233134
2	0	0	1	1	4224,37	3,54711032	3,54758501	5,4046671949326848	1	-0,574130058	0,019173516
2	0	0	1	1	4230,90	3,48180151	3,48221469	4,891403074065849	1	-0,540495455	0,0170329157
2	0	0	0	1	4237,40	3,41679263	3,41722512	4,4459140971302989	1	-0,510184228	0,0151926894
2	0	0	0	1	4243,90	3,35178375	3,35231566	4,0499429355064966	1	-0,482673496	0,0135766873
2	0	0	1	1	4250,40	3,28677464	3,2872963	3,6431835467616621	1	-0,457711339	0,0119762234
2	0	0	1	1	4256,90	3,22176576	3,22229671	3,3088889730473171	1	-0,435109645	0,0106622223
2	0	0	0	1	4263,40	3,15675688	3,15737724	3,0066817458719014	1	-0,414543658	0,00949322898
2	0	0	0	1	4269,90	3,09174824	3,09244776	2,6841165826966371	1	-0,396051645	0,00830049068
2	0	0	1	1	4276,40	3,02673912	3,02704763	2,3889786719034128	1	-0,379532456	0,00723155215
2	0	0	1	1	4282,91	2,96173048	2,9621985	2,1970203009744454	1	-0,364616692	0,00650801044
2	0	0	0	1	4289,41	2,89672136	2,89730906	1,9562175205598282	1	-0,351133704	0,00566776656
2	0	0	0	1	4295,91	2,83171272	2,83215952	1,7370127011090518	1	-0,339121491	0,00491949683
2	0	0	0	1	4302,41	2,76670361	2,76728988	1,5081654392803686	1	-0,328582585	0,00417353073
2	0	0	1	1	4308,91	2,70169473	2,70210004	1,2879178812727296	1	-0,319499522	0,00348008284
2	0	0	1	1	4315,41	2,63668561	2,63714075	1,0688197581718339	1	-0,311841488	0,00281862821
2	0	0	0	1	4321,91	2,57167697	2,5720911	0,83796657963345395	1	-0,305641741	0,00215532631
2	0	0	0	1	4328,41	2,50666785	2,50711131	0,58314530272036787	1	-0,301003367	0,0014620102
2	0	0	1	1	4334,95	2,44125891	2,44180155	0,25680900722121258	1	-0,29820931	0,000627076603
2	0	0	1	1	4340,06	2,39015245	2,39078164	-0,075554885798030438	1	-0,297714144	0,000180635237