Folder: thesis/Experimentelles/Rohdaten/Batterietests/AlteZelle/Studenten_Batterietests/Sonstige/ZView-Export (part 5)

File: S vs Li_04_OCV_C02_loop0.txt
EC-Lab ASCII FILE
Nb header lines : 3
mode	error	time/s	Ewe/V
3	0	11741,20	2,3973949
3	0	11756,20	2,38082004
3	0	11771,20	2,37298083
3	0	11786,20	2,36762118
3	0	11801,20	2,36363506
3	0	11816,20	2,36069775
3	0	11831,20	2,35856152
3	0	11846,20	2,35653973
3	0	11861,20	2,35518551
3	0	11876,20	2,35385036
3	0	11891,20	2,35280132
3	0	11906,20	2,35198116
3	0	11921,20	2,35127544
3	0	11936,20	2,35049343
3	0	11951,20	2,35009289
3	0	11966,20	2,34948254
3	0	11981,20	2,34892941
3	0	11996,20	2,34845257
3	0	12011,20	2,34793758
3	0	12026,20	2,34761333
3	0	12041,20	2,34692669
3	0	12056,20	2,34665966
3	0	12071,20	2,34627819
3	0	12086,20	2,3458395
3	0	12101,20	2,34557247
3	0	12116,20	2,34513378
3	0	12131,20	2,34480953
3	0	12146,20	2,34442806
3	0	12161,20	2,34412289
3	0	12176,20	2,34387493
3	0	12191,20	2,34345531
3	0	12206,20	2,34313107
3	0	12221,20	2,34284496
3	0	12236,20	2,34265423
3	0	12251,20	2,34219646
3	0	12266,20	2,34175777
3	0	12281,20	2,34158611
3	0	12296,20	2,34139538
3	0	12311,20	2,34112835
3	0	12326,20	2,3408041
3	0	12341,20	2,34057522
3	0	12356,20	2,34028912
3	0	12371,20	2,34004116
3	0	12386,20	2,33971691
3	0	12401,20	2,33954525
3	0	12416,20	2,33920193
3	0	12431,20	2,33895397
3	0	12446,20	2,3386488
3	0	12461,20	2,33853436
3	0	12476,20	2,33824825
3	0	12491,20	2,33817196
3	0	12506,20	2,33782864
3	0	12521,20	2,33759975
3	0	12536,20	2,33733273
3	0	12551,20	2,33719921
3	0	12566,20	2,33687496
3	0	12581,20	2,33672237
3	0	12596,20	2,33662701
3	0	12611,20	2,33626461
3	0	12626,20	2,3360548
3	0	12641,20	2,33592129
3	0	12656,20	2,33553982
3	0	12671,20	2,33534908
3	0	12686,20	2,33521557
3	0	12701,20	2,33502483
3	0	12716,20	2,33477688
3	0	12731,20	2,33464336
3	0	12746,20	2,33431911
3	0	12761,20	2,33424282
3	0	12776,20	2,33409023
3	0	12791,20	2,33386135
3	0	12806,20	2,33365154
3	0	12821,20	2,33351803
3	0	12836,20	2,33315563
3	0	12851,20	2,33302212
3	0	12866,20	2,33292675
3	0	12881,20	2,33267879
3	0	12896,20	2,33258343
3	0	12911,20	2,33243084
3	0	12926,20	2,33214474
3	0	12941,20	2,33201122
3	0	12956,20	2,33178234
3	0	12971,20	2,33178234
3	0	12986,20	2,33147717
3	0	13001,20	2,33128643
3	0	13016,20	2,33117199
3	0	13031,20	2,33111477
3	0	13046,20	2,3307333
3	0	13061,20	2,33071423
3	0	13076,20	2,33048534
3	0	13091,20	2,33027554
3	0	13106,20	2,33018017
3	0	13121,20	2,32989407
3	0	13136,20	2,32981777
3	0	13151,20	2,32958889
3	0	13166,20	2,32953167
3	0	13181,20	2,32928371
3	0	13196,20	2,3291502
3	0	13211,20	2,32905483
3	0	13226,20	2,3287878
3	0	13241,20	2,3287878
3	0	13256,20	2,32853985
3	0	13271,20	2,32838726
3	0	13286,20	2,32812023
3	0	13301,20	2,32804394
3	0	13316,20	2,32794857
3	0	13331,20	2,32777691
3	0	13346,20	2,32758617
3	0	13361,20	2,32749081
3	0	13376,20	2,32726192
3	0	13391,20	2,32718563
3	0	13406,20	2,32695675
3	0	13421,20	2,32684231
3	0	13436,20	2,32667065
3	0	13451,20	2,32655621
3	0	13466,20	2,32630825
3	0	13481,20	2,3262701
3	0	13496,20	2,32611752
3	0	13511,20	2,32588863
3	0	13526,20	2,32575512
3	0	13541,20	2,3256216
3	0	13556,20	2,32539272
3	0	13571,20	2,32539272
3	0	13586,20	2,32516384
3	0	13601,20	2,32501125
3	0	13616,20	2,32482052
3	0	13631,20	2,32466793
3	0	13646,20	2,32455349
3	0	13661,20	2,32449627
3	0	13676,20	2,32428646
3	0	13691,20	2,32405758
3	0	13706,20	2,32388592
3	0	13721,20	2,32379055
3	0	13736,20	2,32369518
3	0	13751,20	2,3234663
3	0	13766,20	2,32333279
3	0	13781,20	2,32312298
3	0	13796,20	2,32295132
3	0	13811,20	2,32279897
3	0	13826,20	2,32268453
3	0	13841,20	2,32251287
3	0	13856,20	2,32236028
3	0	13871,20	2,32226491
3	0	13886,20	2,32199788
3	0	13901,20	2,32178807
3	0	13916,20	2,32174993
3	0	13931,20	2,32152104
3	0	13946,20	2,32125401
3	0	13961,20	2,32113957
3	0	13976,20	2,32092977
3	0	13991,20	2,3208344
3	0	14006,20	2,32056737
3	0	14021,20	2,32045293
3	0	14036,20	2,32024312
3	0	14051,20	2,31991887
3	0	14066,20	2,31978536
3	0	14081,20	2,31968999
3	0	14096,20	2,31934667
3	0	14111,20	2,31915593
3	0	14126,20	2,31892705
3	0	14141,20	2,31875539
3	0	14156,20	2,31854558
3	0	14171,20	2,31829762
3	0	14186,20	2,31806874
3	0	14201,20	2,31772542
3	0	14216,20	2,31757283
3	0	14231,20	2,31726766
3	0	14246,20	2,31713414
3	0	14261,20	2,31680989
3	0	14276,20	2,31650472
3	0	14291,20	2,31631398
3	0	14306,20	2,31600881
3	0	14321,20	2,31576085
3	0	14336,20	2,31547475
3	0	14351,20	2,3151505
3	0	14366,20	2,31488347
3	0	14381,20	2,31469274
3	0	14396,20	2,31436849
3	0	14411,20	2,31406331
3	0	14426,20	2,31381536
3	0	14441,20	2,31349111
3	0	14456,20	2,31314778
3	0	14471,20	2,31280446
3	0	14486,20	2,31249928
3	0	14501,20	2,31211782
3	0	14516,20	2,31194615
3	0	14531,20	2,31158376
3	0	14546,20	2,31131673
3	0	14561,20	2,3110497
3	0	14576,20	2,31063008
3	0	14591,20	2,31042027
3	0	14606,20	2,31001973
3	0	14621,20	2,30969548
3	0	14636,20	2,30935216
3	0	14651,20	2,30908513
3	0	14666,20	2,30879903
3	0	14681,20	2,30845571
3	0	14696,20	2,30809331
3	0	14711,20	2,30761647
3	0	14726,20	2,3073113
3	0	14741,20	2,30704427
3	0	14756,20	2,3065865
3	0	14771,20	2,30626225
3	0	14786,20	2,30588078
3	0	14801,20	2,30570912
3	0	14816,20	2,30523229
3	0	14831,20	2,30483174
3	0	14846,20	2,30460286
3	0	14861,20	2,30399251
3	0	14876,20	2,30364919
3	0	14891,20	2,30338216
3	0	14906,20	2,30292439
3	0	14921,20	2,30252385
3	0	14936,20	2,30214238
3	0	14951,20	2,30176091
3	0	14966,20	2,30137944
3	0	14981,20	2,30101705
3	0	14996,20	2,30071187
3	0	15011,20	2,30029225
3	0	15026,20	2,29991078
3	0	15041,20	2,29956746
3	0	15056,20	2,29916692
3	0	15071,20	2,29876637
3	0	15086,20	2,2983849
3	0	15101,20	2,29779363
3	0	15116,20	2,29748845
3	0	15131,20	2,29708791
3	0	15146,20	2,29670644
3	0	15161,20	2,29624867
3	0	15176,20	2,2958672
3	0	15191,20	2,29540944
3	0	15206,20	2,29508519
3	0	15221,20	2,29460835
3	0	15236,20	2,29415059
3	0	15251,20	2,2937119
3	0	15266,20	2,29329228
3	0	15281,20	2,29272008
3	0	15296,20	2,29239583
3	0	15311,20	2,29199529
3	0	15326,20	2,29161382
3	0	15341,20	2,29113698

File: S vs Li_05_GCPL_C02_loop1.txt
EC-Lab ASCII FILE
Nb header lines : 3
mode	ox/red	error	control changes	Ns changes	counter inc.	Ns	time/s	control/V/mA	Ewe/V	dq/mA.h	<I>/mA	P/W	(Q-Qo)/mA.h	x	Capacity/mA.h
1	0	0	1	1	0	1	82050,01	-0,100000001	2,34276867	0	0	0	0	0	0
1	0	0	1	0	0	1	83150,03	-0,100000001	2,20681357	-0,00027771323539358045	-0,09997478908165952	0,00022062572	-0,030547001318498867	0,0011397496900732747	0,030547001318498867
1	0	0	1	0	0	1	84250,05	-0,100000001	2,14963174	-0,00027771485672808352	-0,099975372472387802	0,000214910237	-0,061095435298778368	0,0022795528346838192	0,061095435298778368
1	0	0	1	0	0	1	85350,07	-0,100000001	2,09859133	-0,00027771472115400765	-0,099975323573577664	0,000209807346	-0,09164398527238336	0,0034193603071612922	0,09164398527238336
1	0	0	1	0	0	1	86450,10	-0,100000001	2,06115031	-0,00027771489299088717	-0,099975385442942349	0,000206064302	-0,12219259544542832	0,0045591700257608096	0,12219259544542832
1	0	0	1	0	0	1	87550,12	-0,100000001	2,05025935	-0,00027771493836782045	-0,099975402140270912	0,000204975498	-0,15274123484034403	0,0056989808346676147	0,15274123484034403
1	0	0	1	0	0	1	88650,14	-0,100000001	2,05487514	-0,00027771574370231894	-0,099975692054961203	0,000205437565	-0,18328991532574525	0,00683879317671568	0,18328991532574525
1	0	0	1	0	0	1	89750,16	-0,100000001	2,06103587	-0,00027771351624321606	-0,099974890065655066	0,000206051831	-0,21383853920042717	0,0079786034065416934	0,21383853920042717
1	0	0	1	0	0	1	90850,18	-0,100000001	2,06162715	-0,0002777135451688535	-0,099974900227289728	0,00020611097	-0,24438715949654944	0,0091184135028468365	0,24438715949654944
1	0	0	1	0	0	1	91950,20	-0,100000001	2,06038737	-0,00027771369569210544	-0,099974954413425574	0,000205987133	-0,27493570890315315	0,010258220954168731	0,27493570890315315
1	0	0	1	0	0	1	93050,23	-0,100000001	2,05880427	-0,00027771461138212019	-0,099975284269607898	0,000205829536	-0,30548426285619546	0,011398028575124358	0,30548426285619546
1	0	0	1	0	0	1	94150,25	-0,100000001	2,05680156	-0,00027771405191057261	-0,099975083021967974	0,000205628909	-0,33603278502101069	0,012537835010018496	0,33603278502101069
1	0	0	1	0	0	1	95250,27	-0,100000001	2,05353999	-0,00027771394963024394	-0,099975046202941107	0,000205302757	-0,36658133326478662	0,013677642417953723	0,36658133326478662
1	0	0	1	0	0	1	96350,29	-0,100000001	2,04968715	-0,00027771434940977232	-0,099975189794851686	0,000204917858	-0,39712988702874157	0,01481745003185425	0,39712988702874157
1	0	0	1	0	0	1	97450,31	-0,100000001	2,04573894	-0,00027771537865863904	-0,099975560269402739	0,000204523894	-0,42767855396368102	0,015957261868316368	0,42767855396368102
1	0	0	1	0	0	1	98550,34	-0,100000001	2,041085	-0,00027771601049767603	-0,099975787782825011	0,000204059077	-0,45822722089033197	0,017097073704469229	0,45822722089033197
1	0	0	1	0	0	1	99650,36	-0,100000001	2,0356493	-0,00027771587530523536	-0,09997573943223872	0,000203515548	-0,48877590626271712	0,018236886228857235	0,48877590626271712
1	0	0	1	0	0	1	100750,38	-0,100000001	2,02887821	-0,00027771481645603974	-0,099975358254060979	0,000202837822	-0,51932453781893293	0,01937669674529161	0,51932453781893293
1	0	0	1	0	0	1	101850,40	-0,100000001	2,02214527	-0,00027771380310133101	-0,099974993285982042	0,000202163967	-0,54987316650145677	0,020516507154504669	0,54987316650145677
1	0	0	1	0	0	1	102950,42	-0,100000001	2,01504993	-0,00027771407442291578	-0,099975090753822477	0,000201454794	-0,58042172585480973	0,021656314976953146	0,58042172585480973
1	0	0	1	0	0	1	104050,44	-0,100000001	2,00587559	-0,00027771328890861738	-0,099974807974264282	0,000200537033	-0,61097024478908557	0,02279612129131152	0,61097024478908557
1	0	0	1	0	0	1	105150,47	-0,100000001	1,99603367	-0,00027771367925074368	-0,099974948756515994	0,000199553368	-0,64151869948524186	0,023935925208859277	0,64151869948524186
1	0	0	1	0	0	1	106250,49	-0,100000001	1,98226273	-0,00027771251884847878	-0,099974531131684262	0,000198175781	-0,6720671395462935	0,025075728580351606	0,6720671395462935
1	0	0	1	0	0	1	107350,51	-0,100000001	1,96322751	-0,00027771274797038902	-0,099974613603467456	0,000196272915	-0,70261559326394829	0,026215532461390163	0,70261559326394829
1	0	0	1	0	0	1	108450,53	-0,100000001	1,92803717	-0,00027771314460163315	-0,099974756029432102	0,000192755047	-0,7331640105589399	0,027355334983450182	0,7331640105589399
1	0	0	1	0	0	1	109550,55	-0,100000001	1,58221781	-0,00027771271060821085	-0,099974599791396582	0,000158181589	-0,76371243663854605	0,028495137833275981	0,76371243663854605
1	0	0	1	0	0	1	110650,57	-0,100000001	1,08840811	-0,00027771328247628278	-0,099974805762251085	0,000108813387	-0,79426092227639552	0,029634942905299917	0,79426092227639552
1	1	0	0	0	0	2	111735,91	0,100000001	2,31692433	0,00027781074312825997	0,10000989113987242	0,000231715356	-0,77273782735108685	0,02883188729552775	0,025836425684041856
1	1	0	0	0	0	2	112835,93	0,100000001	2,31879354	0,00027781059646896186	0,10000983800477323	0,000231902159	-0,74217861825556006	0,027691682116880032	0,056395634779568755
1	1	0	0	0	0	2	113935,96	0,100000001	2,32602215	0,0002778110347874463	0,10000999579630883	0,000232625462	-0,71161940036362483	0,02655147661002649	0,086954852671504038
1	1	0	0	0	0	2	115035,98	0,100000001	2,32844448	0,00027781161645758483	0,10001020532265155	0,000232868217	-0,68106014627644646	0,025411269752679763	0,11751410675868227
1	1	0	0	0	0	2	116136,00	0,100000001	2,32688046	0,00027781177167842784	0,10001026144321459	0,000232711929	-0,65050089657633907	0,024271063059020544	0,1480733564587897
1	1	0	0	0	0	2	117236,02	0,100000001	2,32548809	0,00027781198070032726	0,10001033669077565	0,000232572842	-0,6199416856492064	0,023130857812033149	0,17863256738592211
1	1	0	0	0	0	2	118336,04	0,100000001	2,32558346	0,00027781065854968291	0,10000986048378653	0,000232581282	-0,58938245667210701	0,021990651891577229	0,2091917963630217
1	1	0	0	0	0	2	119436,06	0,100000001	2,3272047	0,00027781106805097722	0,10001000777094328	0,000232743754	-0,55882321377586355	0,020850445451779325	0,23975103925926515
1	1	0	0	0	0	2	120536,09	0,100000001	2,33061886	0,00027781156910417805	0,10001018814536618	0,000233085637	-0,52826398109330419	0,019710239393067712	0,27031027194182429
1	1	0	0	0	0	2	121636,11	0,100000001	2,33430004	0,00027781162801881629	0,10001020968952046	0,000233453829	-0,49770475977268589	0,018570033758285392	0,30086949326244166
1	1	0	0	0	0	2	122736,13	0,100000001	2,3388586	0,00027781160025505555	0,10001019973318434	0,000233909712	-0,46714551701321338	0,017429827323590602	0,33142873602191418
1	1	0	0	0	0	2	123836,15	0,100000001	2,34286404	0,0002778100394772159	0,10000963778509698	0,000234308987	-0,43658631626428685	0,01628962245636576	0,3619879367708407
1	1	0	0	0	0	2	124936,17	0,100000001	2,34803295	0,000277811079059624	0,10001001173281354	0,000234826803	-0,40602715081213453	0,015149418906111021	0,39254710222299302
1	1	0	0	0	0	2	126036,19	0,100000001	2,3536787	0,00027781122926912368	0,10001006580716464	0,000235391562	-0,37546795965890675	0,014009214396914606	0,42310629337622074
1	1	0	0	0	0	2	127136,22	0,100000001	2,35917187	0,00027781019834097888	0,10000969485849712	0,000235940053	-0,34490875146743392	0,012869009251998358	0,45366550156769357
1	1	0	0	0	0	2	128236,24	0,100000001	2,36327267	0,00027781080891523101	0,10000991485647707	0,000236350694	-0,31434954190776429	0,011728804056032845	0,48422471112736326
1	1	0	0	0	0	2	129336,26	0,100000001	2,36729693	0,00027781193789798349	0,10001032128223638	0,000236754131	-0,28379031587648074	0,010588598245489274	0,5147839371586471
1	1	0	0	0	0	2	130436,28	0,100000001	2,37410617	0,00027781189388616218	0,10001030515305251	0,000237435088	-0,25323111446807568	0,0094483933536584038	0,54534313856705216
1	1	0	0	0	0	2	131536,29	0,100000001	2,37837863	0,00027780532313262422	0,10000990067997638	0,000237861415	-0,22267213504009021	0,0083081967442154445	0,57590211799503731
1	1	0	0	0	0	2	132636,29	0,100000001	2,3894794	0,00027780570788847078	0,10001003919205947	0,00023897193	-0,19211348578400656	0,0071680124539300634	0,60646076725112102
1	1	0	0	0	0	2	133736,29	0,100000001	2,39611697	0,00027780598724136755	0,10001013975908656	0,000239635992	-0,1615548440758295	0,0060278284452672243	0,63701940895929766
1	1	0	0	0	0	2	134836,29	0,100000001	2,40168643	0,00027780691287335418	0,10001047298654963	0,000240193796	-0,13099620674021875	0,0048876445997507142	0,66757804629490893
1	1	0	0	0	0	2	135936,30	0,100000001	2,40681696	0,00027780590861042346	0,10001011145195112	0,000240706038	-0,10043755847439293	0,003747460346413184	0,69813669456073434
1	1	0	0	0	0	2	137036,30	0,100000001	2,41059351	0,00027780614080942339	0,10001019504357802	0,000241083922	-0,069878941504342259	0,0026072772607631021	0,72869531153078502
1	1	0	0	0	0	2	138136,30	0,100000001	2,41602945	0,0002778059360223512	0,10001012132024357	0,000241627393	-0,039320332588225184	0,0014670944756161107	0,75925392044690189
1	1	0	0	0	0	2	139236,30	0,100000001	2,42131281	0,00027780592938388387	0,1000101189303957	0,000242155787	-0,008761799977851401	0,00032691453753899603	0,78981245305727565
1	1	0	0	0	0	2	140336,30	0,100000001	2,41925287	0,00027780416110778851	0,10000948235110096	0,000241948233	0,021796779619326205	-0,00081326715367894362	0,82037103265445274
1	1	0	0	0	0	2	141436,30	0,100000001	2,42777872	0,00027780483413653242	0,10000972464141086	0,000242801485	0,052355340032713306	-0,0019534481291238666	0,85092959306783974
1	1	0	0	0	0	2	142536,30	0,100000001	2,43495035	0,00027780553235237795	0,10000997599907594	0,000243519331	0,082913932644798131	-0,0030936303059454931	0,8814881856799241
1	1	0	0	0	0	2	143636,30	0,100000001	2,44288492	0,00027780599561788973	0,10001014277463408	0,000244313269	0,11347255796865742	-0,0042338137032874067	0,91204681100378266
1	1	0	0	0	0	2	144736,30	0,100000001	2,45043778	0,00027780486197438502	0,10000973466303626	0,00024506764	0,14403123838801837	-0,0053739991563165638	0,9426054914231433
1	1	0	0	0	0	2	145836,30	0,100000001	2,45039964	0,00027780488651825322	0,10000974349882741	0,000245063828	0,1745898925540024	-0,0065141836297969306	0,97316414558912742
1	1	0	0	0	0	2	146805,89	0,100000001	2,45966935	0,0002665491483422617	0,10001008712225898	0,000245991745	0,20152583500684739	-0,0075191998584723776	1,0001000880419722