Folder: thesis/Experimentelles/Rohdaten/Batterietests/AlteZelle/Studenten_Batterietests/Sonstige/ZView-Export (part 3)

File: LiCoO2 vs Li_07_OCV_C01.txt
EC-Lab ASCII FILE
Nb header lines : 48

Open Circuit Voltage

Run on channel : 1 (SN 6985)
Grouped channel(s) : 1
User :
CE vs. WE compliance from -10 V to 10 V
Electrode connection : standard
Ewe ctrl range : min = 0,00 V, max = 5,00 V
Acquisition started on : 01.22.2015 12:12:33
Saved on :
	File : LiCoO2 vs Li_07_OCV_C01.mpr
	Directory : C:\Hupfer\Studenten Batterietests\
	Host : 192.168.0.2
Device : VMP3 (SN 0324)
Address : 192.168.0.1
EC-Lab for windows v10.33 (software)
Internet server v10.33 (firmware)
Command interpretor v10.32 (firmware)
Electrode material : LATP vs Li
Initial state : charged
Electrolyte : DME:Diox 1:2, 1M LiTFSi
Comments : LATP als Elektrode, normaler Seperator und Elektrolyt, Goldschicht teilweise vorhanden, elektrolytschonend, Probe2
Mass of active material : 0,001 mg
 at x = 0,000
Molecular weight of active material (at x = 0) : 0,001 g/mol
Atomic weight of intercalated ion : 0,001 g/mol
Acquisition started at : xo = 0,000
Number of e- transfered per intercalated ion : 1
for DX = 1, DQ = 26,801 mA.h
Battery capacity : 0,000 A.h
Reference electrode : Li+/Li (-3,020 V)
Electrode surface area : 0,001 cm²
Characteristic mass : 0,001 g
Create one data file per loop
tR (h:m:s)          3:00:0,0000
dER/dt (mV/h)       0,0
dER (mV)            0,00
dtR (s)             60,0000
E range min (V)     0,000
E range max (V)     5,000

Number of loops : 1
Loop 0 from point number 0 to 180

mode	error	time/s	Ewe/V
3	0	332818,5744	4,1961031
3	0	332878,5745	4,06039572
3	0	332938,5747	4,03721428
3	0	332998,5748	4,02778149
3	0	333058,5750	4,02232027
3	0	333118,5751	4,01815748
3	0	333178,5753	4,01510239
3	0	333238,5754	4,01261997
3	0	333298,5756	4,01050043
3	0	333358,5758	4,00849581
3	0	333418,5759	4,00681543
3	0	333478,5761	4,00526857
3	0	333538,5762	4,00395107
3	0	333598,5764	4,00259542
3	0	333658,5765	4,00131607
3	0	333718,5767	4,00013208
3	0	333778,5768	3,99890995
3	0	333838,5770	3,99806976
3	0	333898,5772	3,99690485
3	0	333958,5773	3,99591208
3	0	334018,5775	3,99512911
3	0	334078,5776	3,99428892
3	0	334138,5778	3,99350595
3	0	334198,5779	3,99264669
3	0	334258,5781	3,99192119
3	0	334318,5782	3,99106193
3	0	334378,5784	3,99037457
3	0	334438,5786	3,98966789
3	0	334498,5787	3,98913336
3	0	334558,5789	3,98835039
3	0	334618,5790	3,9877584
3	0	334678,5792	3,98707104
3	0	334738,5793	3,98653626
3	0	334798,5795	3,98592544
3	0	334858,5796	3,98539066
3	0	334918,5798	3,9847796
3	0	334978,5800	3,98420668
3	0	335038,5801	3,98369122
3	0	335098,5803	3,9832902
3	0	335158,5804	3,98260283
3	0	335218,5806	3,98220181
3	0	335278,5807	3,98162889
3	0	335338,5809	3,98109436
3	0	335398,5810	3,98071241
3	0	335458,5812	3,98019695
3	0	335518,5813	3,9797194
3	0	335578,5815	3,97929931
3	0	335638,5817	3,97882199
3	0	335698,5818	3,97832561
3	0	335758,5820	3,97786736
3	0	335818,5821	3,97756171
3	0	335878,5823	3,97719908
3	0	335938,5824	3,97672153
3	0	335998,5826	3,97626328
3	0	336058,5827	3,97582412
3	0	336118,5829	3,97557592
3	0	336178,5831	3,97509861
3	0	336238,5832	3,97462106
3	0	336298,5834	3,97435379
3	0	336358,5835	3,97395277
3	0	336418,5837	3,97345638
3	0	336478,5838	3,97315073
3	0	336538,5840	3,97296
3	0	336598,5841	3,97248244
3	0	336658,5843	3,97225332
3	0	336718,5845	3,97183323
3	0	336778,5846	3,97145128
3	0	336838,5848	3,97106957
3	0	336898,5849	3,97076392
3	0	336958,5851	3,97049665
3	0	337018,5852	3,97011471
3	0	337078,5854	3,96977115
3	0	337138,5855	3,96950364
3	0	337198,5857	3,96908355
3	0	337258,5859	3,96883535
3	0	337318,5860	3,96843433
3	0	337378,5862	3,96828175
3	0	337438,5863	3,96793795
3	0	337498,5865	3,96774697
3	0	337558,5866	3,96730781
3	0	337618,5868	3,96702147
3	0	337678,5869	3,96681142
3	0	337738,5871	3,96648669
3	0	337798,5872	3,96608567
3	0	337858,5874	3,96585655
3	0	337918,5876	3,96553206
3	0	337978,5877	3,96524549
3	0	338038,5879	3,96507359
3	0	338098,5880	3,96482539
3	0	338158,5882	3,96446276
3	0	338218,5883	3,964329
3	0	338278,5885	3,96402359
3	0	338338,5886	3,96375608
3	0	338398,5888	3,96350789
3	0	338458,5890	3,96324062
3	0	338518,5891	3,96289682
3	0	338578,5893	3,9626677
3	0	338638,5894	3,96243858
3	0	338698,5896	3,9621141
3	0	338758,5897	3,96190405
3	0	338818,5899	3,96175122
3	0	338878,5900	3,96148396
3	0	338938,5902	3,9611783
3	0	338998,5904	3,96098733
3	0	339058,5905	3,96079636
3	0	339118,5907	3,96054816
3	0	339178,5908	3,96033812
3	0	339238,5910	3,9600327
3	0	339298,5911	3,95980358
3	0	339358,5913	3,95961261
3	0	339418,5914	3,95928788
3	0	339478,5916	3,95911598
3	0	339538,5918	3,95886779
3	0	339598,5919	3,95877242
3	0	339658,5921	3,95844769
3	0	339718,5922	3,95823765
3	0	339778,5924	3,95812321
3	0	339838,5925	3,95785594
3	0	339898,5927	3,95758843
3	0	339958,5928	3,95737839
3	0	340018,5930	3,95713019
3	0	340078,5932	3,95693922
3	0	340138,5933	3,95686293
3	0	340198,5935	3,95657635
3	0	340258,5936	3,95638561
3	0	340318,5938	3,95615649
3	0	340378,5939	3,95590806
3	0	340438,5941	3,95569801
3	0	340498,5942	3,95562172
3	0	340558,5944	3,95527792
3	0	340618,5945	3,95506787
3	0	340678,5947	3,9548769
3	0	340738,5949	3,95474339
3	0	340798,5950	3,95457149
3	0	340858,5952	3,95447612
3	0	340918,5953	3,95415139
3	0	340978,5955	3,95397949
3	0	341038,5956	3,95371222
3	0	341098,5958	3,953655
3	0	341158,5959	3,9533112
3	0	341218,5961	3,95310116
3	0	341278,5963	3,95294833
3	0	341338,5964	3,9527576
3	0	341398,5966	3,95260477
3	0	341458,5967	3,95243287
3	0	341518,5969	3,95220375
3	0	341578,5970	3,95208907
3	0	341638,5972	3,95185995
3	0	341698,5973	3,95166898
3	0	341758,5975	3,95155454
3	0	341818,5977	3,95143986
3	0	341878,5978	3,95117259
3	0	341938,5980	3,95094347
3	0	341998,5981	3,95088625
3	0	342058,5983	3,95056152
3	0	342118,5984	3,95044708
3	0	342178,5986	3,95027518
3	0	342238,5987	3,95012236
3	0	342298,5989	3,95000792
3	0	342358,5991	3,94987416
3	0	342418,5992	3,94956875
3	0	342478,5994	3,94949222
3	0	342538,5995	3,94928217
3	0	342598,5997	3,94903398
3	0	342658,5998	3,94903398
3	0	342718,6000	3,94886208
3	0	342778,6001	3,94874763
3	0	342838,6003	3,94848013
3	0	342898,6004	3,94836569
3	0	342958,6006	3,94825101
3	0	343018,6008	3,94806004
3	0	343078,6009	3,94790745
3	0	343138,6011	3,94783092
3	0	343198,6012	3,94762087
3	0	343258,6014	3,94739175
3	0	343318,6015	3,94721985
3	0	343378,6017	3,94708633
3	0	343438,6018	3,94697165
3	0	343498,6020	3,94689536
3	0	343558,6022	3,94664717
3	0	343618,5663	3,94653249

File: S vs Li_01_OCV_C02_loop0.txt
EC-Lab ASCII FILE
Nb header lines : 3
mode	error	time/s	Ewe/V
3	1	0,00	2,53045058
3	0	15,00	2,52102852
3	0	30,00	2,5117588
3	0	45,00	2,50296593
3	0	60,00	2,49434471
3	0	75,00	2,48620057
3	0	90,00	2,47853303
3	0	105,00	2,47101808
3	0	120,00	2,46382737
3	0	135,00	2,45659852
3	0	150,00	2,44978929
3	0	165,00	2,4440484
3	0	180,00	2,43941355
3	0	195,00	2,4359231
3	0	210,00	2,433043
3	0	225,00	2,43031549
3	0	240,00	2,42850351
3	0	255,00	2,42676783
3	0	270,00	2,42526102
3	0	285,00	2,42392588
3	0	300,00	2,42266703
3	0	315,00	2,42161798
3	0	330,00	2,42056894
3	0	345,00	2,41971064
3	0	360,00	2,41890955
3	0	375,00	2,4182229
3	0	390,00	2,41751719
3	0	405,00	2,41684961
3	0	420,00	2,41633463
3	0	435,00	2,4157052
3	0	450,00	2,41524744
3	0	465,00	2,41467524
3	0	480,00	2,41421747
3	0	495,00	2,41389322
3	0	510,00	2,41347361
3	0	525,00	2,41305399
3	0	540,00	2,41257715
3	0	555,00	2,4123292
3	0	570,00	2,41200495
3	0	585,00	2,41173792
3	0	600,00	2,41143274
3	0	615,00	2,41101313
3	0	630,00	2,4106698
3	0	645,00	2,41047907
3	0	660,00	2,41036463
3	0	675,00	2,40992594
3	0	690,00	2,4097352
3	0	705,00	2,40946817
3	0	720,00	2,40922022
3	0	735,00	2,4090867
3	0	750,00	2,4088769
3	0	765,00	2,40870523
3	0	780,00	2,40849543
3	0	795,00	2,4082284
3	0	810,00	2,40798044
3	0	825,00	2,407866
3	0	840,00	2,40759897
3	0	855,00	2,4075036
3	0	870,00	2,40738916
3	0	885,00	2,40717936
3	0	900,00	2,4069314
3	0	915,00	2,40687418
3	0	930,00	2,40668344
3	0	945,00	2,40658808
3	0	960,00	2,40632105
3	0	975,00	2,40613031
3	0	990,00	2,40607309
3	0	1005,00	2,40603495
3	0	1020,00	2,40569162
3	0	1035,00	2,4057107
3	0	1050,00	2,40550089
3	0	1065,00	2,40540552
3	0	1080,00	2,40525293
3	0	1095,00	2,40508127
3	0	1110,00	2,40504313
3	0	1125,00	2,40490961
3	0	1140,00	2,40479541
3	0	1155,00	2,40466189
3	0	1170,00	2,40450931
3	0	1185,00	2,40431857
3	0	1200,00	2,40424228
3	0	1215,00	2,40408969
3	0	1230,00	2,40387988
3	0	1245,00	2,40399432
3	0	1260,00	2,40378451
3	0	1275,00	2,40361285
3	0	1290,00	2,40346026
3	0	1305,00	2,40338397
3	0	1320,00	2,40338397
3	0	1335,00	2,40325046
3	0	1350,00	2,4030025
3	0	1365,00	2,40292621
3	0	1380,00	2,40288806
3	0	1395,00	2,40277362
3	0	1410,00	2,40273547
3	0	1425,00	2,40250659
3	0	1440,00	2,40256381
3	0	1455,00	2,40223956
3	0	1470,00	2,40218234
3	0	1485,00	2,40201068
3	0	1500,00	2,40197253
3	0	1515,00	2,4017818
3	0	1530,00	2,40172458
3	0	1545,00	2,40168643
3	0	1560,00	2,40161014
3	0	1575,00	2,40147662
3	0	1590,00	2,40147662
3	0	1605,00	2,40120959
3	0	1620,00	2,40103793
3	0	1635,00	2,40103793
3	0	1650,00	2,401057
3	0	1665,00	2,40092349
3	0	1680,00	2,40073276
3	0	1695,00	2,40069461
3	0	1710,00	2,40067554
3	0	1725,00	2,40052295
3	0	1740,00	2,40033221
3	0	1755,00	2,40029407
3	0	1770,00	2,40014148
3	0	1785,00	2,40002704
3	0	1800,00	2,40010333
3	0	1815,00	2,3998363
3	0	1830,00	2,39985538
3	0	1845,00	2,39968371
3	0	1860,00	2,39966464
3	0	1875,00	2,39956927
3	0	1890,00	2,39943576
3	0	1905,00	2,39934039
3	0	1920,00	2,39928317
3	0	1935,00	2,3991878
3	0	1950,00	2,39924502
3	0	1965,00	2,39895892
3	0	1980,00	2,39895892
3	0	1995,00	2,39878726
3	0	2010,00	2,39855838
3	0	2025,00	2,3986156
3	0	2040,00	2,39855838
3	0	2055,00	2,39836764
3	0	2070,00	2,39836764
3	0	2085,00	2,3982532
3	0	2100,00	2,39821506
3	0	2115,00	2,39819598
3	0	2130,00	2,39804339
3	0	2145,00	2,39785266
3	0	2160,00	2,39785266
3	0	2175,00	2,39775729
3	0	2190,00	2,39770007
3	0	2205,00	2,39752841
3	0	2220,00	2,39750934
3	0	2235,00	2,39747119
3	0	2250,00	2,39737582
3	0	2265,00	2,39724231
3	0	2280,00	2,39712787
3	0	2295,00	2,3970325
3	0	2310,00	2,39701343
3	0	2325,00	2,39691806
3	0	2340,00	2,39672732
3	0	2355,00	2,39661288
3	0	2370,00	2,39663196
3	0	2385,00	2,39653659
3	0	2400,00	2,39655566
3	0	2415,00	2,39634585
3	0	2430,00	2,39621234
3	0	2445,00	2,3960979
3	0	2460,00	2,39619327
3	0	2475,00	2,3960216
3	0	2490,00	2,39596438
3	0	2505,00	2,39588809
3	0	2520,00	2,39575458
3	0	2535,00	2,39569736
3	0	2550,00	2,39558291
3	0	2565,00	2,39552569
3	0	2580,00	2,39556384
3	0	2595,00	2,39539218
3	0	2610,00	2,39529681
3	0	2625,00	2,39514422
3	0	2640,00	2,3951633
3	0	2655,00	2,39510608
3	0	2670,00	2,39493442
3	0	2685,00	2,39485812
3	0	2700,00	2,39485812
3	0	2715,00	2,39468646
3	0	2730,00	2,39466739
3	0	2745,00	2,39455295
3	0	2760,00	2,39449573
3	0	2775,00	2,39430499
3	0	2790,00	2,39432406
3	0	2805,00	2,3942287
3	0	2820,00	2,39411426
3	0	2835,00	2,39411426
3	0	2850,00	2,39407611
3	0	2865,00	2,39398074
3	0	2880,00	2,39382815
3	0	2895,00	2,39377093
3	0	2910,00	2,39371371
3	0	2925,00	2,39365649
3	0	2940,00	2,39348483
3	0	2955,00	2,39338946
3	0	2970,00	2,39333224
3	0	2985,00	2,39327502
3	0	3000,00	2,39319873
3	0	3015,00	2,39310336
3	0	3030,00	2,39298892
3	0	3045,00	2,39300799
3	0	3060,00	2,39295077
3	0	3075,00	2,39283633
3	0	3090,00	2,39276004
3	0	3105,00	2,39266467
3	0	3120,00	2,39249301
3	0	3135,00	2,39253116
3	0	3150,00	2,39243579
3	0	3165,00	2,3922832
3	0	3180,00	2,39220691
3	0	3195,00	2,39222598
3	0	3210,00	2,39216876
3	0	3225,00	2,39193988
3	0	3240,00	2,39197803
3	0	3255,00	2,39184451
3	0	3270,00	2,39180636
3	0	3285,00	2,39178729
3	0	3300,00	2,39153934
3	0	3315,00	2,39150119
3	0	3330,00	2,39150119
3	0	3345,00	2,39142489
3	0	3360,00	2,39131045
3	0	3375,00	2,39125323
3	0	3390,00	2,39117694
3	0	3405,00	2,3910625
3	0	3420,00	2,39117694
3	0	3435,00	2,39102435
3	0	3450,00	2,39085269
3	0	3465,00	2,39089084
3	0	3480,00	2,39075732
3	0	3495,00	2,39068103
3	0	3510,00	2,39054751
3	0	3525,00	2,39058566
3	0	3540,00	2,39037585
3	0	3555,00	2,39045215
3	0	3570,00	2,39033771
3	0	3585,00	2,39028049
3	0	3600,00	2,39018512

File: S vs Li_02_CV_C02_loop2.txt
EC-Lab ASCII FILE
Nb header lines : 3
mode	ox/red	error	control changes	counter inc.	time/s	control/V	Ewe/V	<I>/mA	cycle number	(Q-Qo)/C	P/W
2	0	0	1	0	5080,30	2,39125252	2,39142251	-0,062920480966567987	3	0	0,000150469452
2	0	0	0	0	5086,82	2,32604313	2,32647252	-0,50346215208992365	3	-0,00179044902	0,00117129087
2	0	0	0	0	5093,36	2,26063442	2,26115251	-1,0400165521229336	3	-0,00679615	0,00235163607
2	0	0	1	0	5099,86	2,19562531	2,19607282	-1,624141982446119	3	-0,0154617112	0,00356673403
2	0	0	1	0	5106,36	2,13061643	2,13095331	-2,1778618382910934	3	-0,0278016776	0,00464092195
2	0	0	0	0	5112,87	2,06560731	2,06609416	-2,7402351504812685	3	-0,043768324	0,00566158397
2	0	0	0	0	5119,37	2,00059867	2,00092411	-3,3470784736176429	3	-0,0635097772	0,00669725006
2	0	0	1	0	5125,87	1,93558967	1,93612492	-3,9761283174157146	3	-0,0872816965	0,0076982812
2	0	0	1	0	5132,37	1,87058091	1,87121546	-4,5861979040006989	3	-0,115123421	0,00858176406
2	0	0	0	0	5138,87	1,80557179	1,80614591	-5,1362810743351802	3	-0,146765217	0,00927687343
2	0	0	0	0	5145,37	1,74056292	1,74117625	-5,4972693050900998	3	-0,181198642	0,00957171433
2	0	0	0	0	5151,87	1,67555416	1,6760565	-5,9160517466564787	3	-0,218293801	0,00991563685
2	0	0	1	0	5158,37	1,61054504	1,61097693	-6,3343632196386752	3	-0,258141696	0,0102045126
2	0	0	1	0	5164,87	1,54553628	1,5461278	-6,6803373768925811	3	-0,300484508	0,0103286551
2	0	0	0	0	5171,37	1,4805274	1,48109806	-7,038296863436727	3	-0,344993293	0,0104244081
2	0	0	0	0	5177,87	1,4155184	1,41614854	-7,381364191571904	3	-0,391866416	0,0104531078
2	0	0	1	0	5184,38	1,35050964	1,35094893	-7,6703345974286349	3	-0,440766394	0,0103622302
2	0	0	1	0	5190,88	1,28550065	1,2859292	-7,8969595978657446	3	-0,491307944	0,0101549309
2	0	0	0	0	5197,38	1,22049177	1,22101986	-8,1217896913488806	3	-0,543442309	0,0099168662
2	0	0	0	0	5203,88	1,15548277	1,15593016	-8,3606112152338317	3	-0,596978426	0,00966428313
2	0	0	1	0	5210,38	1,09047389	1,09126103	-8,5899754092097638	3	-0,652065039	0,00937390514
2	0	0	1	0	5216,88	1,02546501	1,02623141	-8,7580652112761933	3	-0,708484471	0,00898780115
2	0	0	0	0	5223,38	0,960456073	0,960911512	-8,9634742985168858	3	-0,766054094	0,00861310586
2	0	0	0	0	5229,88	0,895447135	0,896002114	-9,136412908633559	3	-0,824912727	0,00818624534
2	0	0	0	0	5236,38	0,830438256	0,830912352	-9,2962065835794125	3	-0,884852707	0,00772433309
2	0	0	1	0	5242,88	0,765429378	0,765902817	-9,4190197661519117	3	-0,945810914	0,007214054
2	0	0	1	0	5249,38	0,700420439	0,700763106	-9,5557444989681242	3	-1,00759447	0,00669631315
2	0	0	0	0	5255,88	0,635411501	0,635773599	-9,5977562020221965	3	-1,06991339	0,0061019999
2	0	0	0	0	5262,39	0,570402622	0,570924222	-9,6133840704957555	3	-1,1324091	0,00548851397
2	0	0	1	0	5268,89	0,505393744	0,505854607	-9,7825437982876902	3	-1,19578767	0,00494854478
2	1	0	0	0	5275,31	0,558801055	0,55938834	-8,9453690275549888	3	-1,25590336	0,00500393519
2	1	0	0	0	5281,81	0,623809993	0,624147534	-8,3438073694705958	3	-1,31195736	0,00520776678
2	1	0	1	0	5288,31	0,688818932	0,689297259	-7,8514593094587187	3	-1,36455917	0,00541198952
2	1	0	1	0	5294,81	0,753827751	0,754377007	-7,4523011321822925	3	-1,4142946	0,00562184444
2	1	0	0	0	5301,31	0,818836689	0,819466591	-7,0083160797754931	3	-1,46126103	0,00574308075
2	1	0	0	0	5307,81	0,883845687	0,884325981	-6,5999504029750963	3	-1,50550973	0,00583650777
2	1	0	1	0	5314,31	0,948854387	0,949425578	-6,2049754820764211	3	-1,54712665	0,00589116244
2	1	0	1	0	5320,81	1,01386333	1,0144552	-5,8083476523558349	3	-1,58614159	0,00589230843
2	1	0	0	0	5327,32	1,0788722	1,07936466	-5,3956527610619853	3	-1,62259316	0,00582387671
2	1	0	0	0	5333,82	1,1438812	1,14440417	-4,9985068701207782	3	-1,65638268	0,00572031224
2	1	0	1	0	5340,32	1,20889008	1,20948386	-4,5644456731776442	3	-1,68751287	0,00552062318
2	1	0	1	0	5346,82	1,27389896	1,27444351	-4,1635307533045702	3	-1,7158848	0,00530618476
2	1	0	1	0	5353,32	1,33890796	1,33935285	-3,7620850553115302	3	-1,74164283	0,00503875921
2	1	0	0	0	5359,82	1,40391672	1,40437233	-3,3878602795302886	3	-1,76488221	0,00475781737
2	1	0	0	0	5366,32	1,46892571	1,46950221	-3,020422893265881	3	-1,78571022	0,00443851808
2	1	0	1	0	5372,82	1,53393471	1,53434145	-2,6744592549900189	3	-1,8041966	0,00410353392
2	1	0	1	0	5379,32	1,59894347	1,59936118	-2,320202646156151	3	-1,82039285	0,00371084199
2	1	0	0	0	5385,82	1,66395247	1,66447067	-1,9948371959229264	3	-1,8344059	0,00332034798
2	1	0	0	0	5392,32	1,72896135	1,72949016	-1,6720152615259139	3	-1,84631753	0,00289173401
2	1	0	1	0	5398,83	1,79397035	1,79425955	-1,3559633949771558	3	-1,85615873	0,00243295031
2	1	0	1	0	5405,33	1,85897923	1,85936928	-1,0403156721343621	3	-1,86395121	0,00193433103
2	1	0	0	0	5411,83	1,9239881	1,92467916	-0,73664247725779866	3	-1,86971843	0,00141780043
2	1	0	0	0	5418,37	1,98939693	1,99004912	-0,43235312324638285	3	-1,87353373	0,000860403932
2	1	0	1	0	5424,87	2,05440593	2,05505896	-0,14581283725177286	3	-1,87540507	0,00029965397
2	1	0	1	0	5431,45	2,12021518	2,12053895	0,13351186570556229	3	-1,87543797	0,000283117115
2	1	0	0	0	5437,95	2,18522453	2,1857295	0,40393266961943654	3	-1,8736856	0,000882887573
2	1	0	0	0	5444,45	2,2502327	2,25062799	0,67063587314138662	3	-1,87018967	0,00150935189
2	1	0	0	0	5450,95	2,31524181	2,31596828	0,93035385943948864	3	-1,86498129	0,00215466996
2	1	0	1	0	5457,48	2,38055062	2,38107777	1,1887095831334555	3	-1,85805964	0,00283040991
2	1	0	1	0	5463,98	2,44555974	2,44605732	1,4423664587860294	3	-1,84951484	0,00352811115
2	1	0	0	0	5470,48	2,51056862	2,51095676	1,7161060000459328	3	-1,83925843	0,00430906797
2	1	0	0	0	5476,99	2,5755775	2,57616663	1,9993922319263149	3	-1,82720256	0,00515076751
2	1	0	1	0	5483,49	2,64058614	2,64103627	2,2980594827483075	3	-1,81322122	0,00606925832
2	1	0	1	0	5489,99	2,70559525	2,70620561	2,6300957916925328	3	-1,79722571	0,00711758016
2	1	0	0	0	5496,49	2,77060413	2,77117515	2,9224581476300954	3	-1,77918947	0,00809864327
2	1	0	0	0	5502,99	2,83561325	2,83612466	3,234160512685776	3	-1,75919366	0,00917248242
2	1	0	1	0	5509,49	2,90062189	2,90107417	3,5045869909226861	3	-1,73731709	0,0101670669
2	1	0	1	0	5515,99	2,96563077	2,96620417	3,8231183439493107	3	-1,71351409	0,0113401497
2	1	0	0	0	5522,49	3,03063989	3,03094316	4,139441561897584	3	-1,68766475	0,0125464117
2	1	0	0	0	5528,99	3,09564877	3,09635329	4,4621553557614464	3	-1,65969479	0,0138164097
2	1	0	0	0	5535,49	3,16065645	3,16119146	4,7949572306029114	3	-1,62958753	0,0151577778
2	1	0	1	0	5541,99	3,22566652	3,22604179	5,1434671034415514	3	-1,59731698	0,016593039
2	1	0	1	0	5548,50	3,2906754	3,29121161	5,5841170276204723	3	-1,56240499	0,0183785111
2	1	0	0	0	5555,00	3,35568404	3,35627103	5,9995933994650701	3	-1,52501726	0,0201362614
2	1	0	0	0	5561,50	3,42069292	3,42128086	6,2367848902940685	3	-1,48501861	0,0213377923
2	1	0	1	0	5568,00	3,4857018	3,48634028	6,7142165650923853	3	-1,44308317	0,0234080441
2	1	0	1	0	5574,50	3,55071115	3,55125999	7,2903940603137011	3	-1,39770091	0,025890084
2	1	0	0	0	5581,00	3,61572003	3,61607909	7,905852988362327	3	-1,3484937	0,0285881888
2	1	0	0	0	5587,50	3,68072867	3,68109846	8,7631113380193715	3	-1,29528856	0,0322578773
2	1	0	1	0	5594,00	3,74573755	3,74624825	9,4695398434996608	3	-1,23645914	0,0354752466
2	1	0	1	0	5600,54	3,8111465	3,81157827	10,150953980783613	3	-1,17273438	0,0386911556
2	1	0	0	0	5607,04	3,87615561	3,87651801	11,073738756279141	3	-1,10431266	0,0429275483
2	1	0	0	0	5613,54	3,94116473	3,94157767	11,609986456731973	3	-1,03069091	0,0457616635
2	1	0	1	0	5620,05	4,00617361	4,00675726	12,183137195408336	3	-0,953396201	0,0488148741
2	1	0	1	0	5626,55	4,07118225	4,07174683	14,043515081206947	3	-0,868991971	0,0571816377
2	1	0	1	0	5633,05	4,13619089	4,13677454	14,227741300321117	3	-0,776780069	0,0588569567
2	0	0	0	1	5639,51	4,19919968	4,19959259	15,348066871364835	3	-0,680639446	0,0644556284
2	0	0	1	1	5646,01	4,13419104	4,13481331	14,403173064192118	3	-0,584276438	0,0595544316
2	0	0	1	1	5652,51	4,06918192	4,06955433	13,502380748589814	3	-0,49303925	0,0549486727
2	0	0	0	1	5659,01	4,00417233	4,00466442	12,030556533284795	3	-0,409970522	0,0481783412
2	0	0	0	1	5665,51	3,9391644	3,9395144	10,436806082725525	3	-0,336807549	0,0411159471
2	0	0	1	1	5672,01	3,87415528	3,87456512	9,1485300287604326	3	-0,273255587	0,0354465768
2	0	0	1	1	5678,51	3,8091464	3,80936551	7,9916959082086784	3	-0,21764195	0,0304432902
2	0	0	1	1	5685,01	3,74413753	3,74438572	6,9415139804283686	3	-0,169247314	0,0259917062
2	0	0	0	1	5691,52	3,67912865	3,67970681	6,1081013704339533	3	-0,12689279	0,0224760231
2	0	0	0	1	5698,02	3,61411977	3,61469722	5,3498963850239891	3	-0,0897032395	0,0193382557
2	0	0	1	1	5704,56	3,54871058	3,54941726	4,6697742305696013	3	-0,0569302402	0,016574977
2	0	0	1	1	5711,06	3,48370171	3,48449779	4,1139930499096666	3	-0,0283946563	0,0143351993
2	0	0	0	1	5717,56	3,41869283	3,41924787	3,5946390964090822	3	-0,00338665675	0,012290962
2	0	0	0	1	5724,06	3,35368395	3,35407853	3,2175370032588544	3	0,01873192	0,0107918717
2	0	0	1	1	5730,56	3,28867507	3,2890687	2,8776156374563834	3	0,0384840183	0,00946467556
2	0	0	1	1	5737,06	3,22366595	3,22404861	2,5660223979502858	3	0,0561545305	0,00827298127
2	0	0	0	1	5743,56	3,15865707	3,15908957	2,300887887055673	3	0,0719522461	0,00726871099
2	0	0	0	1	5750,06	3,09364843	3,09413004	2,0658710760374746	3	0,0861395895	0,00639207382
2	0	0	1	1	5756,56	3,02863955	3,02934122	1,8490057699382234	3	0,0988670662	0,00560126919
2	0	0	1	1	5763,07	2,96363044	2,96402097	1,6590059113999162	3	0,11027734	0,00491732825
2	0	0	0	1	5769,57	2,89862061	2,89922953	1,4987674070751494	3	0,120538361	0,00434527081
2	0	0	0	1	5776,07	2,83361268	2,83393168	1,326225905679161	3	0,129707173	0,00375843351
2	0	0	0	1	5782,57	2,7686038	2,76907253	1,1599047112589091	3	0,137766495	0,00321186031
2	0	0	1	1	5789,07	2,70359492	2,7040627	0,99664692642787853	3	0,144762382	0,00269499584
2	0	0	1	1	5795,57	2,63858604	2,63901305	0,83170801928887667	3	0,15070723	0,00219488842
2	0	0	0	1	5802,07	2,57357693	2,57395339	0,65298011045281971	3	0,155535832	0,00168074039
2	0	0	0	1	5808,61	2,50816822	2,50849342	0,44524026072273702	3	0,159144789	0,00111688231
2	0	0	1	1	5815,11	2,44315934	2,44362426	0,18982558460750899	3	0,161239326	0,000463862409
2	0	0	1	1	5820,27	2,39145255	2,39190316	-0,057678006589412685	3	0,161594748	0,000137960204