Folder: thesis/Experimentelles/Rohdaten/Batterietests/AlteZelle/Studenten_Batterietests/Sonstige/ZView-Export (part 4)

File: S vs Li_02_CV_C02_loop4.txt
EC-Lab ASCII FILE
Nb header lines : 3
mode	ox/red	error	control changes	counter inc.	time/s	control/V	Ewe/V	<I>/mA	cycle number	(Q-Qo)/C	P/W
2	0	0	1	0	6560,53	2,39255285	2,39302468	-0,044455107301473619	5	0	0,000106382169
2	0	0	0	0	6567,05	2,32734323	2,32804465	-0,40551216729606221	5	-0,00142744847	0,000944050436
2	0	0	0	0	6573,55	2,26233459	2,26277494	-0,84163043492784346	5	-0,00544200605	0,00190442021
2	0	0	1	0	6580,08	2,1970253	2,19749522	-1,3205600629250221	5	-0,0124970712	0,00290192454
2	0	0	1	0	6586,58	2,13201666	2,13233542	-1,8086875267326867	5	-0,0226521846	0,00385672855
2	0	0	0	0	6593,08	2,06700754	2,06755614	-2,298907607793801	5	-0,0359795056	0,00475312071
2	0	0	0	0	6599,58	2,00199866	2,00260639	-2,8310484246661219	5	-0,0526229665	0,00566947553
2	0	0	1	0	6606,08	1,93699002	1,9375869	-3,3622308547297875	5	-0,0727412999	0,00651461445
2	0	0	1	0	6612,58	1,87198091	1,87242711	-3,8718267579873427	5	-0,0962694213	0,00724971341
2	0	0	0	0	6619,08	1,80697227	1,80754828	-4,3397379166182778	5	-0,123013735	0,00784428604
2	0	0	0	0	6625,59	1,74196315	1,74252808	-4,6672067853311834	5	-0,15238525	0,00813273899
2	0	0	0	0	6632,09	1,67695403	1,67757881	-4,9370458858708589	5	-0,183500811	0,00828228332
2	0	0	1	0	6638,59	1,61194539	1,61236894	-5,3568787649273933	5	-0,217081174	0,0086372653
2	0	0	1	0	6645,09	1,54693639	1,54767978	-5,747967687745888	5	-0,253169686	0,00889601372
2	0	0	0	0	6651,59	1,48192751	1,48254001	-6,13218545665344	5	-0,291827381	0,00909121055
2	0	0	0	0	6658,09	1,41691864	1,41755056	-6,4434463779131622	5	-0,332669824	0,00913391076
2	0	0	1	0	6664,59	1,35190964	1,35247087	-6,7611547037959066	5	-0,375472546	0,0091442652
2	0	0	1	0	6671,09	1,28690076	1,28716087	-7,0230257610479898	5	-0,420229197	0,00903976429
2	0	0	0	0	6677,59	1,22189176	1,22237158	-7,327899123231575	5	-0,466853917	0,00895741582
2	0	0	0	0	6684,09	1,156883	1,15748227	-7,5271748130520422	5	-0,515184283	0,00871257111
2	0	0	1	0	6690,59	1,091874	1,09254289	-7,7168682267268454	5	-0,564729691	0,00843100995
2	0	0	1	0	6697,10	1,02686512	1,02741301	-7,8534187749028275	5	-0,615276754	0,00806870498
2	0	0	1	0	6703,60	0,961856961	0,962143302	-8,2026598594714534	5	-0,667779565	0,0078921346
2	0	0	0	0	6710,10	0,896847427	0,897243798	-8,3203150679668173	5	-0,721387088	0,00746535091
2	0	0	0	0	6716,60	0,831838369	0,832404435	-8,4576946496963507	5	-0,775871158	0,00704022264
2	0	0	1	0	6723,10	0,76682955	0,767234683	-8,5975177213549619	5	-0,831096113	0,00659631379
2	0	0	1	0	6729,60	0,701820672	0,702195108	-8,6716302459438733	5	-0,887191236	0,00608917652
2	0	0	0	0	6736,10	0,636811733	0,637365758	-8,8126325234770496	5	-0,944117785	0,00561687024
2	0	0	0	0	6742,60	0,571802855	0,572426319	-8,9003261476755136	5	-1,00193632	0,00509478105
2	0	0	1	0	6749,10	0,506793916	0,507446766	-8,9323280677199078	5	-1,05999124	0,00453268085
2	1	0	0	0	6755,56	0,557800889	0,558206797	-8,2091749459505075	5	-1,11556125	0,0045824172
2	1	0	0	0	6762,07	0,622809827	0,623336434	-7,6257386629779981	5	-1,1669215	0,00475340057
2	1	0	1	0	6768,57	0,687818706	0,688225865	-7,1418476204077466	5	-1,21496272	0,00491520436
2	1	0	1	0	6775,07	0,752827644	0,753425658	-6,6998423039912896	5	-1,26003611	0,00504783308
2	1	0	0	0	6781,57	0,817836523	0,818315029	-6,2124696783721664	5	-1,3020308	0,00508375745
2	1	0	0	0	6788,07	0,882845461	0,883354664	-5,7892438458899699	5	-1,34106243	0,00511395559
2	1	0	0	0	6794,57	0,947853565	0,948392808	-5,4031199730213683	5	-1,37759495	0,00512428023
2	1	0	1	0	6801,07	1,01286328	1,01339388	-4,9890658160050944	5	-1,41129661	0,00505588856
2	1	0	1	0	6807,57	1,07787216	1,07849348	-4,5873580910265446	5	-1,44241321	0,00494743558
2	1	0	0	0	6814,07	1,14288116	1,1434629	-4,2194428232809005	5	-1,47100258	0,0048247762
2	1	0	0	0	6820,57	1,20789003	1,2083323	-3,8462003916501997	5	-1,49725866	0,00464748824
2	1	0	1	0	6827,07	1,27289891	1,27336192	-3,4972730477651053	5	-1,52117348	0,00445329444
2	1	0	1	0	6833,57	1,33790779	1,33826137	-3,1710029244422912	5	-1,5428611	0,00424363092
2	1	0	0	0	6840,08	1,40291679	1,40352118	-2,8561579616119453	5	-1,56244636	0,00400867825
2	1	0	0	0	6846,58	1,46792567	1,46838057	-2,5476534701883757	5	-1,5799979	0,00374092488
2	1	0	1	0	6853,08	1,53293443	1,53338015	-2,2350816950202006	5	-1,59553158	0,00342722982
2	1	0	1	0	6859,58	1,59794331	1,59841955	-1,9501243090877978	5	-1,60915446	0,00311711687
2	1	0	0	0	6866,08	1,66295242	1,66362941	-1,6738943234085965	5	-1,62093568	0,00278473971
2	1	0	0	0	6872,58	1,72796118	1,72849894	-1,4077383096640333	5	-1,63090801	0,00243327417
2	1	0	1	0	6879,08	1,79297006	1,79351842	-1,1559401356304698	5	-1,63915944	0,00207319995
2	1	0	1	0	6885,58	1,85797894	1,85849786	-0,88254998686413261	5	-1,64577639	0,00164021726
2	1	0	1	0	6892,08	1,92298794	1,92362773	-0,6235868295965079	5	-1,65065312	0,00119954895
2	1	0	0	0	6898,62	1,98839688	1,98920786	-0,36996295380716627	5	-1,65389538	0,000735933194
2	1	0	0	0	6905,12	2,05340576	2,0540576	-0,1324327279192703	5	-1,65552473	0,000272024452
2	1	0	1	0	6911,79	2,12001491	2,12063909	0,10237569187302142	5	-1,65562057	0,0002171019
2	1	0	1	0	6918,29	2,18502402	2,18563843	0,33237294286178989	5	-1,65420938	0,000726447091
2	1	0	0	0	6924,79	2,25003266	2,25054789	0,55814702513938208	5	-1,65131652	0,00125613657
2	1	0	0	0	6931,29	2,31504178	2,31552744	0,78613282709071795	5	-1,64693594	0,00182031211
2	1	0	1	0	6937,82	2,38035059	2,3809576	1,0169408048192654	5	-1,64105487	0,00242129294
2	1	0	1	0	6944,32	2,44535947	2,44600725	1,254778775696952	5	-1,63366354	0,00306919799
2	1	0	0	0	6950,82	2,51036859	2,51067638	1,506492466665801	5	-1,62468433	0,00378231495
2	1	0	0	0	6957,32	2,57537723	2,57586646	1,7718872452775613	5	-1,6140244	0,00456414511
2	1	0	1	0	6963,82	2,64038634	2,64080572	2,0499444827437331	5	-1,60162961	0,00541350525
2	1	0	1	0	6970,32	2,70539522	2,70589519	2,3035775019476858	5	-1,58749747	0,00623323908
2	1	0	0	0	6976,82	2,7704041	2,77081466	2,5765727044393606	5	-1,5715822	0,00713920547
2	1	0	0	0	6983,33	2,83541298	2,83587456	2,8751537892967427	5	-1,55384648	0,00815357547
2	1	0	0	0	6989,83	2,90042114	2,90064192	3,1773723619628243	5	-1,53416574	0,00921641942
2	1	0	1	0	6996,33	2,96543074	2,96576333	3,4601761462787693	5	-1,51255786	0,0102620637
2	1	0	1	0	7002,83	3,03043985	3,03112316	3,8148694003842406	5	-1,48894227	0,0115633393
2	1	0	0	0	7009,33	3,09544873	3,09622312	4,2015606450537747	5	-1,46290576	0,0130089689
2	1	0	0	0	7015,83	3,16045761	3,16087222	4,5994300519426618	5	-1,43432987	0,0145382108
2	1	0	1	0	7022,33	3,22546649	3,22601151	4,878272003183767	5	-1,4035182	0,0157373622
2	1	0	1	0	7028,83	3,29047537	3,29102111	5,2038568916420013	5	-1,37070692	0,0171260033
2	1	0	0	0	7035,33	3,35548401	3,35584044	5,4864486381411411	5	-1,33598673	0,0184116457
2	1	0	0	0	7041,83	3,42049289	3,42110038	5,8367373260358874	5	-1,29931211	0,0199680645
2	1	0	1	0	7048,33	3,48550224	3,48614001	6,2206455034514291	5	-1,26016688	0,0216860417
2	1	0	1	0	7054,84	3,55051112	3,55110979	6,6852504039804045	5	-1,2181685	0,0237400588
2	1	0	0	0	7061,34	3,61552	3,61595893	6,8820388590296346	5	-1,17386901	0,0248851702
2	1	0	0	0	7067,84	3,68052864	3,68112826	7,8196820517380915	5	-1,12584198	0,0287852529
2	1	0	1	0	7074,34	3,74553752	3,74599791	8,179412916302688	5	-1,07350063	0,0306400638
2	1	0	1	0	7080,84	3,8105464	3,81105757	8,842148922383799	5	-1,01836133	0,0336979404
2	1	0	1	0	7087,34	3,87555456	3,87599564	9,6399466811055565	5	-0,958641768	0,0373643897
2	1	0	0	0	7093,88	3,9409647	3,94152737	10,180564917623994	5	-0,894156396	0,0401269756
2	1	0	1	0	7100,38	4,00597429	4,00633717	11,083289040516256	5	-0,825867236	0,0444033928
2	1	0	1	0	7106,88	4,07098198	4,07163715	12,443104967474896	5	-0,749894977	0,0506638102
2	1	0	1	0	7113,38	4,13599205	4,13656712	13,35203004238815	5	-0,666413367	0,0552315675
2	0	0	0	1	7119,81	4,19969988	4,20012331	13,864439740777016	5	-0,578055143	0,0582323559
2	0	0	1	1	7126,32	4,13469076	4,13511372	12,334612928330885	5	-0,493216336	0,0510050282
2	0	0	1	1	7132,82	4,06968212	4,07000446	10,929329266150746	5	-0,417725533	0,0444824174
2	0	0	0	1	7139,32	4,004673	4,00516558	9,6791400040189325	5	-0,350471258	0,0387665592
2	0	0	0	1	7145,82	3,93966436	3,94027591	8,2011693616708211	5	-0,292670906	0,0323148705
2	0	0	1	1	7152,32	3,87465525	3,87507582	7,0015757506091917	5	-0,243403167	0,0271316376
2	0	0	1	1	7158,82	3,80964637	3,8100965	6,0464430103699379	5	-0,2011507	0,0230375305
2	0	0	1	1	7165,32	3,74463677	3,74508619	5,2996501425743821	5	-0,164382532	0,0198476464
2	0	0	0	1	7171,86	3,67922878	3,67963672	4,6401973279813869	5	-0,131917953	0,0170742404
2	0	0	0	1	7178,36	3,6142199	3,61472702	4,0990930510063846	5	-0,103579	0,0148171028
2	0	0	1	1	7184,86	3,54921055	3,54963756	3,61627466728288	5	-0,0785716698	0,0128364647
2	0	0	1	1	7191,36	3,48420167	3,48447776	3,2224041161437779	5	-0,0564482957	0,0112283956
2	0	0	0	1	7197,87	3,41919279	3,41959834	2,9193776212632621	5	-0,0364892446	0,00998309907
2	0	0	0	1	7204,37	3,35418415	3,35460901	2,6315927530328461	5	-0,0184763279	0,00882796478
2	0	0	1	1	7210,87	3,28917527	3,28961945	2,3805710698167459	5	-0,00221492047	0,00783117302
2	0	0	1	1	7217,37	3,22416639	3,2245698	2,1665243792037181	5	0,0125648612	0,00698610907
2	0	0	0	1	7223,87	3,15915704	3,1595304	1,9771580367038624	5	0,0260295346	0,00624689087
2	0	0	0	1	7230,37	3,09414864	3,09462118	1,801058687890567	5	0,0383021124	0,00557359448
2	0	0	1	1	7236,87	3,02913952	3,02947092	1,6344057240833802	5	0,0494749211	0,00495138438
2	0	0	1	1	7243,37	2,96413088	2,96481204	1,4802923525373152	5	0,0595960319	0,00438878872
2	0	0	1	1	7249,87	2,89912271	2,89961338	1,3314659217145781	5	0,0687301084	0,0038607365
2	0	0	0	1	7256,37	2,83411312	2,83457255	1,1800054293125843	5	0,0768915787	0,00334481103
2	0	0	0	1	7262,87	2,769104	2,76963305	1,03984045051038	5	0,0841143802	0,00287997653
2	0	0	1	1	7269,38	2,70409489	2,7045536	0,90047685460497997	5	0,0904246867	0,00243538781
2	0	0	1	1	7275,88	2,63908601	2,6394639	0,75949235012134067	5	0,0958137214	0,00200465275
2	0	0	0	1	7282,38	2,57407737	2,57450438	0,59769298586373414	5	0,100240231	0,00153876317
2	0	0	0	1	7288,92	2,50866818	2,50902414	0,40725901583209555	5	0,103546858	0,00102182268
2	0	0	1	1	7295,42	2,44365931	2,44423485	0,17567343928385498	5	0,105466165	0,000429387146
2	0	0	0	1	7300,49	2,39285278	2,39334512	-0,041875032149255366	5	0,105820507	0,000100221405

File: S vs Li_02_CV_C02_loop9.txt
EC-Lab ASCII FILE
Nb header lines : 3
mode	ox/red	error	control changes	counter inc.	time/s	control/V	Ewe/V	<I>/mA	cycle number	(Q-Qo)/C	P/W
2	0	0	1	0	10261,08	2,39505315	2,39566827	-0,010790958069264888	10	0	2,58515556E-005
2	0	0	0	0	10267,75	2,32834339	2,32891583	-0,31780112255364614	10	-0,00106799603	0,000740132062
2	0	0	0	0	10274,40	2,26183414	2,26234412	-0,68669025234981798	10	-0,00437621213	0,00155352964
2	0	0	1	0	10281,08	2,19502521	2,19548202	-1,0983566405872552	10	-0,0103296144	0,00241142232
2	0	0	0	0	10287,73	2,1285162	2,1289804	-1,5251681832596746	10	-0,0190354455	0,00324705313
2	0	0	0	0	10294,39	2,06200719	2,06246877	-1,985313023750983	10	-0,0306698084	0,00409464631
2	0	0	1	0	10301,04	1,99549794	1,99606752	-2,4866157273451536	10	-0,0455028936	0,00496345293
2	0	0	1	0	10307,69	1,92898881	1,92936563	-2,980121411383152	10	-0,0637526661	0,0057497439
2	0	0	0	0	10314,34	1,86247969	1,86311424	-3,4083685055375238	10	-0,0850099847	0,00635017967
2	0	0	0	0	10320,99	1,79597056	1,79653251	-3,8857658828298298	10	-0,109201767	0,00698090484
2	0	0	1	0	10327,64	1,72946155	1,72994077	-4,2270956486463584	10	-0,136225149	0,00731262518
2	0	0	0	0	10334,29	1,66295242	1,66354942	-4,5341238292554918	10	-0,165512398	0,00754273916
2	0	0	0	0	10340,94	1,59644306	1,5971278	-4,8606672237316653	10	-0,196764633	0,00776310684
2	0	0	1	0	10347,59	1,52993405	1,53034592	-5,1738141116996704	10	-0,230167359	0,00791772548
2	0	0	1	0	10354,24	1,46342504	1,4638443	-5,4623352500299661	10	-0,265495598	0,00799600873
2	0	0	0	0	10360,89	1,39691591	1,39748287	-5,6993823635081357	10	-0,30264774	0,00796478894
2	0	0	0	0	10367,55	1,33040679	1,3310914	-6,0469387918710643	10	-0,341855198	0,00804902799
2	0	0	1	0	10374,20	1,26389766	1,26428938	-6,2406726690630093	10	-0,382808954	0,00789001584
2	0	0	0	0	10380,85	1,19738853	1,19790792	-6,4241395046313498	10	-0,424958944	0,00769552775
2	0	0	0	0	10387,50	1,13087928	1,13140631	-6,5972426459193229	10	-0,468286842	0,00746416207
2	0	0	1	0	10394,15	1,06437027	1,06491482	-6,7345737045010022	10	-0,51247561	0,00717174727
2	0	0	1	0	10400,80	0,997861147	0,998292923	-6,9836533690492506	10	-0,558019102	0,00697173178
2	0	0	0	0	10407,45	0,931352079	0,93186152	-7,1333163951834138	10	-0,604971111	0,00664726319
2	0	0	0	0	10414,10	0,864842951	0,865289748	-7,3932352562745395	10	-0,653084815	0,00639729062
2	0	0	1	0	10420,75	0,798333883	0,798727989	-7,5178548792997901	10	-0,702582479	0,00600472093
2	0	0	0	0	10427,40	0,731824756	0,7323066	-7,5890958259503232	10	-0,753044903	0,005557545
2	0	0	0	0	10434,05	0,665315688	0,665955186	-7,6184569746256154	10	-0,803582847	0,00507355109
2	0	0	1	0	10440,71	0,59880656	0,599313378	-7,7026588593920448	10	-0,854587555	0,00461630663
2	0	0	1	0	10447,36	0,532297373	0,532881856	-7,751798090835415	10	-0,905920267	0,00413079234
2	1	0	0	0	10453,97	0,533797622	0,53429383	-7,4258613834778675	10	-0,95678252	0,00396759203
2	1	0	0	0	10460,62	0,600306749	0,600845456	-6,8236343363921037	10	-1,00416934	0,00409994973
2	1	0	1	0	10467,27	0,666815877	0,667136848	-6,3526208003361971	10	-1,04794455	0,00423806719
2	1	0	0	0	10473,92	0,733324945	0,733868718	-5,9061090114216205	10	-1,08873439	0,00433430867
2	1	0	0	0	10480,57	0,799834073	0,800330281	-5,5043035124739104	10	-1,12664378	0,00440526055
2	1	0	1	0	10487,22	0,866343141	0,866992116	-5,088019695132985	10	-1,16191542	0,00441127317
2	1	0	1	0	10493,87	0,932852268	0,933293402	-4,7035105961064544	10	-1,19442093	0,00438975543
2	1	0	0	0	10500,52	0,999361455	1,00000525	-4,3505029479662554	10	-1,22449982	0,00435052579
2	1	0	0	0	10507,18	1,06587052	1,06643689	-3,9898060758908685	10	-1,25224209	0,00425487617
2	1	0	1	0	10513,83	1,13237965	1,13299847	-3,7002079424758701	10	-1,27781272	0,00419232994
2	1	0	0	0	10520,48	1,19888866	1,19959021	-3,3511240805188826	10	-1,30123043	0,00401997566
2	1	0	0	0	10527,13	1,26539791	1,26616192	-3,015293665851161	10	-1,32232189	0,00381785003
2	1	0	1	0	10533,78	1,33190703	1,33244324	-2,719789227470759	10	-1,34136033	0,00362396473
2	1	0	1	0	10540,43	1,39841604	1,39891493	-2,4418464613457546	10	-1,35851324	0,00341593544
2	1	0	0	0	10547,08	1,46492529	1,46542645	-2,1719908521821037	10	-1,37386549	0,00318289292
2	1	0	0	0	10553,73	1,53143442	1,5320282	-1,9058507084846531	10	-1,38741171	0,00291981711
2	1	0	1	0	10560,38	1,59794331	1,59835958	-1,6598947892586438	10	-1,3992635	0,00265310868
2	1	0	0	0	10567,03	1,66445243	1,66507137	-1,420955327960355	10	-1,40949357	0,00236599194
2	1	0	0	0	10573,68	1,73096144	1,73137271	-1,1745186584691182	10	-1,41813087	0,00203352957
2	1	0	1	0	10580,34	1,79747081	1,79796433	-0,94190301249425088	10	-1,42515635	0,00169350801
2	1	0	1	0	10586,99	1,86397982	1,86480665	-0,7118916401329143	10	-1,43064666	0,00132754026
2	1	0	0	0	10593,68	1,93088901	1,93145847	-0,49041848241662048	10	-1,43466198	0,000947222929
2	1	0	0	0	10600,33	1,99739814	1,99790001	-0,27741163511139667	10	-1,43720591	0,000554240716
2	1	0	1	0	10606,98	2,06390738	2,06449175	-0,069400614282737139	10	-1,43835175	0,000143276993
2	1	0	0	0	10613,79	2,13201666	2,1325655	0,13750669391204883	10	-1,43811405	0,000293242018
2	1	0	0	0	10620,44	2,19852567	2,19893694	0,33534434600733344	10	-1,43653965	0,000737401075
2	1	0	1	0	10627,09	2,26503491	2,2655189	0,53163510390246861	10	-1,43365085	0,00120442943
2	1	0	1	0	10633,74	2,33154416	2,3319602	0,72922741125027366	10	-1,42945099	0,00170052925
2	1	0	0	0	10640,39	2,39805317	2,39842176	0,93115541525184755	10	-1,42392993	0,00223330338
2	1	0	0	0	10647,08	2,46496296	2,46541595	1,1414695839393598	10	-1,41699219	0,00281419721
2	1	0	1	0	10653,74	2,53147125	2,53192568	1,3508664493759461	10	-1,4087038	0,00342029356
2	1	0	0	0	10660,39	2,5979805	2,59841728	1,5737200602888989	10	-1,39901352	0,00408918131
2	1	0	0	0	10667,04	2,66448975	2,66505909	1,7883515972644054	10	-1,3878628	0,00476606283
2	1	0	1	0	10673,69	2,73099875	2,73169088	2,0235057001312589	10	-1,37517357	0,00552759226
2	1	0	1	0	10680,34	2,797508	2,79784203	2,2801409407208339	10	-1,36086917	0,00637947395
2	1	0	0	0	10686,99	2,86401677	2,86474419	2,5400422265132291	10	-1,34481454	0,00727657136
2	1	0	0	0	10693,64	2,93052602	2,93099546	2,7768216524273085	10	-1,32712758	0,00813885126
2	1	0	1	0	10700,29	2,99703526	2,99748707	3,0301160545398726	10	-1,30781376	0,00908273365
2	1	0	1	0	10706,94	3,06354356	3,06404662	3,2983010863341562	10	-1,28681946	0,0101061482
2	1	0	0	0	10713,59	3,13005328	3,13040018	3,5226022402445382	10	-1,26413608	0,0110271545
2	1	0	1	0	10720,24	3,19656229	3,19712186	3,7628063894808275	10	-1,23983836	0,0120301507
2	1	0	1	0	10726,90	3,26307154	3,26364374	4,0489369196196282	10	-1,2137959	0,0132142873
2	1	0	0	0	10733,55	3,32958055	3,32985473	4,3453120576838771	10	-1,18586302	0,0144692576
2	1	0	0	0	10740,20	3,39608955	3,39659667	4,6363831857839981	10	-1,15582275	0,0157479234
2	1	0	1	0	10746,85	3,46259904	3,46297789	4,8605657803515571	10	-1,12421441	0,0168320313
2	1	0	1	0	10753,50	3,52910709	3,52983856	5,3542233485760774	10	-1,09040034	0,0188995432
2	1	0	0	0	10760,15	3,59561729	3,59602141	5,5624757111072685	10	-1,05410373	0,0200027823
2	1	0	1	0	10766,80	3,66212606	3,66259313	6,0181799195706752	10	-1,01551366	0,0220421441
2	1	0	1	0	10773,45	3,72863555	3,72901464	6,5519802272319936	10	-0,974054992	0,02443243
2	1	0	0	0	10780,10	3,79514456	3,79565644	6,8734634543458522	10	-0,92921263	0,0260893051
2	1	0	0	0	10786,75	3,8616538	3,86239839	7,414648825923607	10	-0,88217181	0,0286383275
2	1	0	1	0	10793,40	3,92816281	3,92878985	8,1689379811286643	10	-0,830385685	0,032094039
2	1	0	1	0	10800,06	3,99467182	3,99539161	9,0170038814345754	10	-0,773807049	0,0360264629
2	1	0	0	0	10806,75	4,06158113	4,06210327	10,098303924004242	10	-0,709268034	0,0410203524
2	1	0	1	0	10813,40	4,1280899	4,12881517	11,394388144214933	10	-0,637123466	0,047045324
2	1	0	1	0	10820,05	4,19459963	4,19505644	13,251294627785682	10	-0,554507375	0,0555899292
2	0	0	1	1	10826,62	4,13969231	4,14013958	12,154412215998011	10	-0,470217884	0,0503209643
2	0	0	1	1	10833,27	4,07318258	4,07366943	11,001379052797979	10	-0,393001407	0,0448159799
2	0	0	0	1	10839,92	4,00667334	4,00706816	9,8614588429530342	10	-0,323589921	0,0395155363
2	0	0	0	1	10846,57	3,94016457	3,94064617	8,4889024396737229	10	-0,262593478	0,0334517621
2	0	0	1	1	10853,22	3,87365508	3,87413502	7,1118203128377434	10	-0,210742101	0,0275521521
2	0	0	1	1	10859,87	3,80714631	3,80747318	6,1431905254721638	10	-0,166895479	0,0233900324
2	0	0	0	1	10866,53	3,74063683	3,7410512	5,2105445315440339	10	-0,129251793	0,019492913
2	0	0	1	1	10873,22	3,67372775	3,67429924	4,455887807955328	10	-0,0970543697	0,0163722653
2	0	0	1	1	10879,87	3,6072185	3,60799789	3,8786281098921907	10	-0,0693883374	0,0139940819
2	0	0	0	1	10886,52	3,5407095	3,54103589	3,425013067821657	10	-0,0451526754	0,0121280942
2	0	0	0	1	10893,17	3,47420049	3,47471404	3,0597896563510003	10	-0,0236072019	0,0106318938
2	0	0	1	1	10899,82	3,40769124	3,40816259	2,7526003997772861	10	-0,00429134956	0,00938131008
2	0	0	1	1	10906,47	3,34118223	3,34164119	2,4859138093888758	10	0,0131063154	0,00830703229
2	0	0	0	1	10913,12	3,27467322	3,2751193	2,2542055199543648	10	0,0288477987	0,00738279196
2	0	0	1	1	10919,77	3,20816398	3,20854783	2,0528349168598653	10	0,0431529991	0,00658661919
2	0	0	1	1	10926,42	3,14165497	3,14211607	1,8724511402348618	10	0,0561936833	0,005883459
2	0	0	0	1	10933,07	3,07514572	3,07565498	1,7094453306247779	10	0,0681046024	0,00525766425
2	0	0	0	1	10939,73	3,00863695	3,00906301	1,5604478583360723	10	0,0789792389	0,00469548581
2	0	0	1	1	10946,38	2,9421277	2,94265151	1,4095679437741619	10	0,0888492689	0,00414786721
2	0	0	1	1	10953,03	2,8756187	2,87621999	1,261175012215972	10	0,0977173969	0,00362741668
2	0	0	0	1	10959,68	2,80910969	2,80949807	1,1147432271391149	10	0,105615102	0,00313186902
2	0	0	0	1	10966,33	2,74260116	2,74307799	0,96633504191980352	10	0,112534441	0,00265073241
2	0	0	1	1	10972,98	2,67609143	2,67659497	0,82107187652339507	10	0,118469246	0,0021976768
2	0	0	0	1	10979,63	2,60958219	2,60993314	0,67246903805061824	10	0,123442173	0,00175509928
2	0	0	0	1	10986,28	2,54307294	2,54348159	0,51200448302552102	10	0,127390221	0,00130227394
2	0	0	1	1	10992,97	2,47616363	2,47652936	0,3083471043501047	10	0,130159348	0,000763630669
2	0	0	1	1	10999,66	2,40925455	2,40959716	0,04494648376324528	10	0,131372333	0,00010830292
2	0	0	0	1	11001,04	2,39545321	2,3959887	-0,016807351106156902	10	0,131391719	4,02702244E-005