Folder: thesis/Experimentelles/Rohdaten/Batterietests/AlteZelle/Studenten_Batterietests/Sonstige/ZView-Export (part 6)

File: S vs Li_05_GCPL_C02_loop5.txt
EC-Lab ASCII FILE
Nb header lines : 3
mode	ox/red	error	control changes	Ns changes	counter inc.	Ns	time/s	control/V/mA	Ewe/V	dq/mA.h	<I>/mA	P/W	(Q-Qo)/mA.h	x	Capacity/mA.h
1	0	0	1	1	0	1	340189,57	-0,100000001	2,46388459	0	0	0	0	0	0
1	0	0	1	0	0	1	341279,59	-0,100000001	2,14223123	-0,00027771190018951894	-0,099974359066488653	0,000214168191	-0,030269108706281997	0,0011293811430808725	0,030269108706281997
1	0	0	1	0	0	1	342369,61	-0,100000001	2,12710595	-0,00027771277361984054	-0,099974673500005453	0,000212656727	-0,060539677304771789	0,002258816756702864	0,060539677304771789
1	0	0	1	0	0	1	343459,63	-0,100000001	2,10435152	-0,00027771187589441738	-0,09997435032042048	0,000210381171	-0,0908102752790096	0,0033882534663735098	0,0908102752790096
1	0	0	1	0	0	1	344549,65	-0,100000001	2,08811998	-0,00027771146975912986	-0,09997420411685984	0,000208758138	-0,12108084689256643	0,004517689192491705	0,12108084689256643
1	0	0	1	0	0	1	345639,67	-0,100000001	2,07000041	-0,00027771108588617706	-0,099974065927585357	0,000206946352	-0,15135140166363664	0,0056471242901940813	0,15135140166363664
1	0	0	1	0	0	1	346729,69	-0,100000001	2,04573894	-0,00027771225657603808	-0,099974487363165197	0,000204521697	-0,18162200941802874	0,006776561364775433	0,18162200941802874
1	0	0	1	0	0	1	347819,72	-0,100000001	2,00352955	-0,00027771104570147066	-0,099974051459041933	0,000200300972	-0,2118925774899641	0,0079059969587509696	0,2118925774899641
1	0	0	1	0	0	1	348909,74	-0,100000001	1,97116208	-0,00027771269053386317	-0,09997464358962953	0,000197066227	-0,2421630975647336	0,0090354307618877171	0,2421630975647336
1	0	0	1	0	0	1	349999,76	-0,100000001	1,95491147	-0,00027771093482772512	-0,099974011542934426	0,000195440341	-0,27243360139150902	0,010164863958789958	0,27243360139150902
1	0	0	1	0	0	1	351089,78	-0,100000001	1,95197427	-0,00027770956167454522	-0,09997351721963552	0,000195145738	-0,30270404480102208	0,011294294901442909	0,30270404480102208
1	0	0	1	0	0	1	352179,80	-0,100000001	1,95311868	-0,00027771032038620778	-0,099973790352902579	0,000195260684	-0,33297441606457485	0,01242372315223308	0,33297441606457485
1	0	0	1	0	0	1	353269,82	-0,100000001	1,95279443	-0,00027771030926538838	-0,099973786349484685	0,000195228247	-0,36324477411418368	0,013553150909993238	0,36324477411418368
1	0	0	1	0	0	1	354359,84	-0,100000001	1,95128763	-0,0002777105268426239	-0,099973864673453645	0,000195077766	-0,39351510950181773	0,014682577822204646	0,39351510950181773
1	0	0	1	0	0	1	355449,86	-0,100000001	1,94680536	-0,00027770917636238867	-0,099973378512257651	0,000194628708	-0,42378548440591629	0,015812006208828477	0,42378548440591629
1	0	0	1	0	0	1	356539,88	-0,100000001	1,94447839	-0,00027771073501515722	-0,099973939616450317	0,000194397158	-0,45405586632626592	0,016941434857238064	0,45405586632626592
1	0	0	1	0	0	1	357629,90	-0,100000001	1,93221426	-0,00027771077080112365	-0,099973952495658688	0,000193171101	-0,48432631840349792	0,018070866123295264	0,48432631840349792
1	0	0	1	0	0	1	358719,93	-0,100000001	1,92733145	-0,00027771062985807658	-0,099973901760630208	0,000192682841	-0,51459675768355629	0,019200296911872707	0,51459675768355629
1	0	0	1	0	0	1	359809,95	-0,100000001	1,92059851	-0,00027771042025875712	-0,099973826306328064	0,000192009582	-0,54486716397980384	0,020329726469779821	0,54486716397980384
1	0	0	1	0	0	1	360899,97	-0,100000001	1,91378927	-0,00027770838758928912	-0,099973094553590208	0,000191327432	-0,5751375096209488	0,021459153764563507	0,5751375096209488
1	0	0	1	0	0	1	361989,99	-0,100000001	1,90305102	-0,00027770911414217619	-0,099973356113412442	0,000190254403	-0,60540784715886541	0,022588580757004851	0,60540784715886541
1	0	0	1	0	0	1	363080,01	-0,100000001	1,89072967	-0,00027770936958698758	-0,099973448071773901	0,000189022758	-0,63567810431658906	0,02371800475035312	0,63567810431658906
1	0	0	1	0	0	1	364170,03	-0,100000001	1,8763864	-0,00027770977169358067	-0,099973592823868685	0,000187589088	-0,66594843974125069	0,024847431663946077	0,66594843974125069
1	0	0	1	0	0	1	365260,05	-0,100000001	1,85603511	-0,0002777103181046744	-0,099973789531566387	0,000185554862	-0,69621884513830029	0,025976861188302912	0,69621884513830029
1	0	0	1	0	0	1	366350,07	-0,100000001	1,8223325	-0,00027770973613858224	-0,099973580027807168	0,000182185104	-0,72648926127856563	0,027106291113503562	0,72648926127856563
1	0	0	1	0	0	1	367440,09	-0,100000001	1,56295371	-0,00027770958267566234	-0,099973524778728294	0,000156253998	-0,75675966262796902	0,02823572048683727	0,75675966262796902
1	0	0	1	0	0	1	368530,11	-0,100000001	1,11015177	-0,00027771065712140669	-0,099973911575240064	0,000110986213	-0,78703008155852928	0,029365150516147584	0,78703008155852928
1	1	0	0	0	0	2	369606,20	0,100000001	2,46672654	0,00027781156613181037	0,10001023811952112	0,00024669792	-0,76969425149405376	0,028718327388170586	0,023614000021262714
1	1	0	0	0	0	2	370696,23	0,100000001	2,44021463	0,00027781043236578502	0,10000982996695386	0,000244045455	-0,73941281171911091	0,027588486156338672	0,053895439796205613
1	1	0	0	0	0	2	371786,25	0,100000001	2,44154978	0,0002778112449807425	0,1000101225050343	0,000244179682	-0,70913139409033126	0,026458645750809898	0,084176857424985126
1	1	0	0	0	0	2	372876,27	0,100000001	2,44553614	0,00027781150066811178	0,10001021455304339	0,000244578579	-0,67884998082368947	0,025328805508038336	0,11445827069162696
1	1	0	0	0	0	2	373966,29	0,100000001	2,45062852	0,00027781182293428314	0,10001033056197426	0,000245088158	-0,64856853968272794	0,024198964225238435	0,14473971183258931
1	1	0	0	0	0	2	375056,31	0,100000001	2,45358491	0,00027781193829327824	0,10001037209274134	0,000245383941	-0,61828708707986048	0,023069122514779418	0,17502116443545677
1	1	0	0	0	0	2	376146,33	0,100000001	2,44175959	0,00027781154201386704	0,10001022943722869	0,000244200928	-0,58800560466590208	0,021939279692028512	0,205302646849416
1	1	0	0	0	0	2	377236,35	0,100000001	2,4372201	0,00027781093765546877	0,1000100118677375	0,000243746414	-0,55772414705753248	0,020809437794807478	0,23558410445778595
1	1	0	0	0	0	2	378326,37	0,100000001	2,42846537	0,00027781111092451549	0,10001007424572178	0,000242871	-0,52744270497645632	0,019679596476930634	0,26586554653886275
1	1	0	0	0	0	2	379416,39	0,100000001	2,43140268	0,00027781085930226576	0,10000998366578454	0,000243164541	-0,49716131768047661	0,018549757203159402	0,29614693383484186
1	1	0	0	0	0	2	380506,41	0,100000001	2,453089	0,00027781163510556019	0,10001026294959296	0,000245334086	-0,46687990488406534	0,017419916977932781	0,32642834663125312
1	1	0	0	0	0	2	381596,44	0,100000001	2,46397996	0,00027781030434411434	0,1000097838823683	0,000246422103	-0,43659844879551514	0,01629007513741825	0,35670980271980333
1	1	0	0	0	0	2	382686,46	0,100000001	2,46289277	0,00027781095421397024	0,10001001783334026	0,000246313954	-0,4063170518226983	0,015160235502591213	0,38699119969262016
1	1	0	0	0	0	2	383776,48	0,100000001	2,47977281	0,00027781088448771171	0,10000999273237051	0,000248002063	-0,37603562739344422	0,014030394843327586	0,41727262412187424
1	1	0	0	0	0	2	384866,50	0,100000001	2,48820305	0,00027781112443407376	0,10001007911256189	0,000248845376	-0,34575417042761491	0,012900552970080592	0,44755408108770355
1	1	0	0	0	0	2	385956,52	0,100000001	2,4966526	0,00027781102744117382	0,10001004419462595	0,000249690347	-0,31547279655623616	0,011770714197199267	0,4778354549590823
1	1	0	0	0	0	2	387046,54	0,100000001	2,5014019	0,00027781072446165811	0,10000993512410045	0,000250165031	-0,28519141021220202	0,010640874958946405	0,50811684130311661
1	1	0	0	0	0	2	388136,56	0,100000001	2,50714302	0,00027781178034096957	0,10001031523100512	0,000250740151	-0,25490993791328848	0,0095110325136014221	0,53839831360203059
1	1	0	0	0	0	2	389226,58	0,100000001	2,5111866	0,00027781099648939238	0,1000100330521992	0,000251143851	-0,22462850675352634	0,0083811916032134912	0,56867974476179226
1	1	0	0	0	0	2	390316,60	0,100000001	2,51158714	0,00027781094668929779	0,10001001512451032	0,000251183868	-0,19434705917253069	0,0072513500801272589	0,59896119234278848
1	1	0	0	0	0	2	391406,62	0,100000001	2,5139904	0,00027781141830525469	0,10001018489949299	0,000251424644	-0,1640655960598937	0,0061215079775346048	0,62924265545542502
1	1	0	0	0	0	2	392496,65	0,100000001	2,49873161	0,00027781108643942413	0,10001006543358712	0,000249898323	-0,13378415328693088	0,0049916666338425421	0,65952409822838771
1	1	0	0	0	0	2	393586,67	0,100000001	2,51465797	0,00027781207784637811	0,10001042233321848	0,00025149202	-0,10350265008738698	0,0038618230355534957	0,68980560142793139
1	1	0	0	0	0	2	394676,69	0,100000001	2,5111866	0,00027781250388713341	0,1000105757014445	0,000251145218	-0,073221144297065626	0,0027319793405990576	0,72008710721825306
1	1	0	0	0	0	2	395766,71	0,100000001	2,50863075	0,00027781149082299734	0,10001021100887043	0,000250888697	-0,042939606856156781	0,0016021344647186461	0,75036864465916186
1	1	0	0	0	0	2	396856,73	0,100000001	2,52169609	0,00027781176468481616	0,10001030959722691	0,000252195605	-0,012658123084799914	0,00047229159132137811	0,7806501284305184
1	1	0	0	0	0	2	397946,75	0,100000001	2,53333068	0,0002778123996651007	0,10001053818281725	0,000253359758	0,017623373816178275	-0,00065755177195971418	0,8109316253314967
1	1	0	0	0	0	2	399036,77	0,100000001	2,54889464	0,00027781212462029526	0,10001043917150445	0,000254916085	0,047904868408206618	-0,001787395049090783	0,84121311992352512
1	1	0	0	0	0	2	400126,79	0,100000001	2,55644774	0,00027781190384965802	0,10001035969560534	0,000255671272	0,078186341398243443	-0,0029172375202225043	0,87149459291356173
1	1	0	0	0	0	2	401216,81	0,100000001	2,55301452	0,00027781267070894445	0,1000106357561401	0,000255328603	0,10846783810420349	-0,0040470808762272077	0,90177608961952218
1	1	0	0	0	0	2	402306,83	0,100000001	2,56417251	0,00027781240935168336	0,1000105416728305	0,000256444269	0,13874937494695902	-0,0051769257297897146	0,93205762646227789
1	1	0	0	0	0	2	403396,86	0,100000001	2,57981253	0,00027781212961466774	0,10001044096944392	0,000258008193	0,16903093756896336	-0,006306771545210656	0,96233918908428173
1	1	0	0	0	0	2	404486,88	0,100000001	2,6081748	0,00027781285467702483	0,10001070198395597	0,00026084538	0,19931251808255526	-0,007436618028190784	0,99262076959787392
1	1	0	0	0	0	2	404756,16	0,100000001	2,61586118	0,00025781027547683984	0,10001052599630314	0,000261613663	0,20679345324439251	-0,0077157417773032307	1,0001017047597112

File: S vs Li_05_GCPL_C02_loop7.txt
EC-Lab ASCII FILE
Nb header lines : 3
mode	ox/red	error	control changes	Ns changes	counter inc.	Ns	time/s	control/V/mA	Ewe/V	dq/mA.h	<I>/mA	P/W	(Q-Qo)/mA.h	x	Capacity/mA.h
1	0	0	1	1	0	1	469384,62	-0,100000001	2,51067162	0	0	0	0	0	0
1	0	0	1	0	0	1	470484,64	-0,100000001	2,16664505	-0,00027771315013865629	-0,099974809044169242	0,000216609929	-0,03054712570421776	0,001139754331071685	0,03054712570421776
1	0	0	1	0	0	1	471584,67	-0,100000001	2,1463511	-0,00027771367085890637	-0,09997499649984983	0,000214581451	-0,061095580424008717	0,0022795582495012864	0,061095580424008717
1	0	0	1	0	0	1	472684,69	-0,100000001	2,12559915	-0,00027771253240356838	-0,099974586660327987	0,000212505896	-0,091644025738927219	0,0034193618170224512	0,091644025738927219
1	0	0	1	0	0	1	473784,71	-0,100000001	2,11316347	-0,00027771362004304925	-0,099974978206493491	0,000211263468	-0,12219247874125085	0,0045591656713710374	0,12219247874125085
1	0	0	1	0	0	1	474884,73	-0,100000001	2,09187746	-0,00027771382119216854	-0,099975050618782144	0,000209135556	-0,15274097037426848	0,0056989709670827571	0,15274097037426848
1	0	0	1	0	0	1	475984,75	-0,100000001	2,07019114	-0,00027771385730513267	-0,099975063613379712	0,000206967496	-0,18328945634517702	0,0068387760515335718	0,18328945634517702
1	0	0	1	0	0	1	477084,77	-0,100000001	2,03437138	-0,00027771261227089501	-0,099974615415503488	0,000203385498	-0,21383787595007581	0,0079785786597793357	0,21383787595007581
1	0	0	1	0	0	1	478184,79	-0,100000001	1,99107468	-0,00027771290762515533	-0,099974721740989914	0,000199057133	-0,24438635135627261	0,009118383350046551	0,24438635135627261
1	0	0	1	0	0	1	479284,81	-0,100000001	1,96416211	-0,0002777135726739135	-0,099974961151023373	0,000196367037	-0,2749348379492777	0,010258188457708626	0,2749348379492777
1	0	0	1	0	0	1	480384,83	-0,100000001	1,95439649	-0,00027771378001819056	-0,099975035796435494	0,000195390865	-0,30548326534028128	0,011397991356464427	0,30548326534028128
1	0	0	1	0	0	1	481484,86	-0,100000001	1,95437741	-0,00027771312348337638	-0,099974799448453235	0,000195388493	-0,33603173843689786	0,012537795960558101	0,33603173843689786
1	0	0	1	0	0	1	482584,88	-0,100000001	1,95374811	-0,00027771439746270573	-0,09997525806985335	0,000195326473	-0,36658019641066458	0,013677600000397914	0,36658019641066458
1	0	0	1	0	0	1	483684,90	-0,100000001	1,95088708	-0,00027771346538803645	-0,099974922531760909	0,000195039785	-0,39712880468929427	0,01481740964831425	0,39712880468929427
1	0	0	1	0	0	1	484784,92	-0,100000001	1,94833124	-0,00027771326767280701	-0,099974851355648781	0,000194784123	-0,42767733661159808	0,015957216447273405	0,42767733661159808
1	0	0	1	0	0	1	485884,94	-0,100000001	1,94300973	-0,00027771352641408643	-0,099974944498388198	0,000194252294	-0,45822588206911546	0,017097023751249574	0,45822588206911546
1	0	0	1	0	0	1	486984,96	-0,100000001	1,94033945	-0,00027771406218450931	-0,099975137369698982	0,000193985703	-0,48877434139977069	0,018236827841716723	0,48877434139977069
1	0	0	1	0	0	1	488084,98	-0,100000001	1,9380697	-0,00027771337209766109	-0,099974888947872422	0,0001937583	-0,5193228499492025	0,019376633768602602	0,5193228499492025
1	0	0	1	0	0	1	489185,00	-0,100000001	1,93402612	-0,00027771280388409894	-0,099974684390273344	0,000193353655	-0,5498713147531801	0,020516438063286762	0,5498713147531801
1	0	0	1	0	0	1	490285,03	-0,100000001	1,9276557	-0,00027771173569435878	-0,0999742998493712	0,000192716034	-0,58041977728190502	0,021656242273078189	0,58041977728190502
1	0	0	1	0	0	1	491385,05	-0,100000001	1,91912985	-0,00027771236821677949	-0,099974527557713574	0,000191864106	-0,61096817202842534	0,022796043953824429	0,61096817202842534
1	0	0	1	0	0	1	492485,07	-0,100000001	1,9077431	-0,00027771254832090605	-0,099974592389295386	0,000190725841	-0,64151657181572147	0,023935845822648794	0,64151657181572147
1	0	0	1	0	0	1	493585,09	-0,100000001	1,89223647	-0,00027771304125297405	-0,099974769841423027	0,000189175902	-0,67206495264114509	0,025075646983980192	0,67206495264114509
1	0	0	1	0	0	1	494685,11	-0,100000001	1,86898601	-0,00027771364794340397	-0,099974988250427802	0,000186851859	-0,70261337661594752	0,026215449755272941	0,70261337661594752
1	0	0	1	0	0	1	495785,13	-0,100000001	1,81832707	-0,00027771297822230394	-0,099974747150818714	0,000181786789	-0,73316184333163674	0,027355254121285629	0,73316184333163674
1	0	0	1	0	0	1	496885,15	-0,100000001	1,41158736	-0,00027771280081032051	-0,099974683286062106	0,000141123004	-0,7637102753534633	0,028495057192823661	0,7637102753534633
1	0	0	1	0	0	1	497985,17	-0,100000001	1,00866234	-0,00027771308626482883	-0,099974786050034112	0,0001008408	-0,79425873261382451	0,029634861206045357	0,79425873261382451
1	1	0	0	0	0	2	499072,30	0,100000001	2,45701814	0,00027781073277692	0,1000099381175371	0,000245726231	-0,76500796712429376	0,02854347581755849	0,029725768448077146
1	1	0	0	0	0	2	500172,32	0,100000001	2,43475962	0,00027781172730815075	0,10001029613722946	0,000243501025	-0,73444874701890662	0,02740327022811808	0,060284988553464026
1	1	0	0	0	0	2	501272,34	0,100000001	2,43702936	0,00027780990755682192	0,10000964104169341	0,000243726434	-0,70388955906220941	0,026263065838188518	0,090844176510161024
1	1	0	0	0	0	2	502372,36	0,100000001	2,44086313	0,00027781060196749037	0,10000989102704914	0,000244110459	-0,67333035970846157	0,02512286102301967	0,12140337586390894
1	1	0	0	0	0	2	503472,38	0,100000001	2,44381952	0,00027781079196184877	0,1000099594237012	0,000244406285	-0,64277115854694822	0,023982656140400662	0,1519625770254224
1	1	0	0	0	0	2	504572,41	0,100000001	2,4492743	0,00027781047953416902	0,10000984694840941	0,000244951545	-0,61221197514801626	0,022842451920527446	0,18252176042435421
1	1	0	0	0	0	2	505672,43	0,100000001	2,45383286	0,00027781007648921674	0,10000970185851307	0,000245407107	-0,58165283307448	0,021702249242560307	0,21308090249789078
1	1	0	0	0	0	2	506772,45	0,100000001	2,45856309	0,00027781021864008573	0,10000975303184056	0,000245880277	-0,55109371028362861	0,020562047284056067	0,2436400252887423
1	1	0	0	0	0	2	507872,47	0,100000001	2,46357942	0,00027781120425669683	0,10001010784815288	0,000246382842	-0,52053450381506304	0,019421842203423808	0,27419923175730854
1	1	0	0	0	0	2	508972,49	0,100000001	2,46581101	0,0002778123728161057	0,10001052852027581	0,000246607058	-0,48997527020657581	0,018281636110164576	0,30475846536579565
1	1	0	0	0	0	2	510072,51	0,100000001	2,47199082	0,00027781098804415926	0,10001003001197381	0,000247223885	-0,45941601193796038	0,01714142909680281	0,33531772363441107
1	1	0	0	0	0	2	511172,53	0,100000001	2,4753859	0,00027781142868060202	0,10001018863512826	0,000247563818	-0,42885677163310323	0,016001222753693014	0,36587696393926829
1	1	0	0	0	0	2	512272,55	0,100000001	2,48276734	0,0002778109774659905	0,10001002620390638	0,000248301629	-0,39829754236869152	0,014861016822517082	0,39643619320367994
1	1	0	0	0	0	2	513372,57	0,100000001	2,48353028	0,00027781210746160813	0,10001043299449602	0,000248378929	-0,36773825066247418	0,01372080856155343	0,42699548490989728
1	1	0	0	0	0	2	514472,60	0,100000001	2,47736955	0,00027781066325638029	0,10000991308713195	0,00024776152	-0,33717896865973882	0,012580600662639734	0,4575547669126327
1	1	0	0	0	0	2	515572,62	0,100000001	2,47506166	0,00027781054628847373	0,1000098709829891	0,00024753061	-0,30661981850180467	0,011440397683032843	0,48811391707056678
1	1	0	0	0	0	2	516672,64	0,100000001	2,4744513	0,00027781021662553149	0,10000975230661501	0,000247469259	-0,2760607345928639	0,010300197175264965	0,5186730009795072
1	1	0	0	0	0	2	517772,66	0,100000001	2,48076463	0,00027781152830769619	0,1000102245007737	0,000248101831	-0,24550152154795184	0,0091599918492603725	0,54923221402441926
1	1	0	0	0	0	2	518872,68	0,100000001	2,48869896	0,00027781208295954598	0,10001042416926646	0,000248895842	-0,21494220409954563	0,0080197826278210419	0,57979153147282547
1	1	0	0	0	0	2	519972,70	0,100000001	2,49670982	0,00027781245225212643	0,10001055711669264	0,000249697332	-0,18438287867765603	0,0068795731088803264	0,61035085689471539
1	1	0	0	0	0	2	521072,72	0,100000001	2,51011848	0,00027781229813728064	0,10001050163175942	0,000251038204	-0,1538234989827841	0,0057393615649416685	0,64091023658958746
1	1	0	0	0	0	2	522172,74	0,100000001	2,50937462	0,00027781324833383158	0,10001084369593133	0,000250964658	-0,12326410284860501	0,0045991494076303578	0,67146963272376653
1	1	0	0	0	0	2	523272,77	0,100000001	2,48389268	0,00027781309971503085	0,10001079019885024	0,000248416065	-0,092704648358061786	0,00345893507296464	0,70202908721431066
1	1	0	0	0	0	2	524372,79	0,100000001	2,49434471	0,00027781252803198163	0,10001063208478262	0,00024946098	-0,062145249337240896	0,0023187228079488429	0,73258848623513126
1	1	0	0	0	0	2	525472,81	0,100000001	2,49745369	0,00027781343119301728	0,10001095721199306	0,00024977274	-0,031585782529494675	0,0011785080137117206	0,7631479530428777
1	1	0	0	0	0	2	526572,83	0,100000001	2,5080204	0,00027781310864786307	0,10001084110257496	0,000250829238	-0,0010262825644321034	3,8291982330545062E-005	0,79370745300794022
1	1	0	0	0	0	2	527672,85	0,100000001	2,5155735	0,00027781344889683856	0,10001096358990606	0,000251584919	0,029533212225195981	-0,0011019238559482114	0,82426694779756851
1	1	0	0	0	0	2	528772,87	0,100000001	2,52318382	0,00027781383734072243	0,10001110342242136	0,000252346392	0,060092725044404186	-0,0022421403669348429	0,8548264606167767
1	1	0	0	0	0	2	529872,89	0,100000001	2,53584838	0,00027781397340819238	0,10001115241044778	0,000253613107	0,09065229446154761	-0,003382358989666535	0,8853860300339209
1	1	0	0	0	0	2	530972,91	0,100000001	2,54803634	0,00027781448359042403	0,10001133607260234	0,000254832528	0,1212118491623721	-0,0045225770633125798	0,91594558473474637
1	1	0	0	0	0	2	532072,93	0,100000001	2,56627059	0,00027781333238631485	0,1000109216422481	0,000256655097	0,15177137856079142	-0,0056627941928918694	0,94650511413316582
1	1	0	0	0	0	2	533172,95	0,100000001	2,59873343	0,00027781383729477725	0,10001110341053843	0,000259902212	0,18233083088178771	-0,0068030084466088755	0,97706456645416256
1	1	0	0	0	0	2	534002,25	0,100000001	2,71592021	0,00025781191023811696	0,1000112078723067	0,00027162247	0,20536932207043021	-0,0076626055284379699	1,0001030576428054