Folder: thesis/Experimentelles/Rohdaten/Batterietests/AlteZelle/Studenten_Batterietests/Sonstige/ZView-Export

Note: README.md
# thesis

Zusammenfassung
---------------
Es konnten die Festkörperelektrolytkeramiken LATP, LAGP, LTO und LLTO hergestellt,
mit XRD und MAS-NMR charakterisiert und zu Elektrodensuspensionen weiterverarbeitet
werden. Aus den Daten der MAS-NMR konnten dabei gegenüber der XRD keine Mehrinfor-
mationen gewonnen werden. Die mit den Suspensionen gegossenen und gestanzten Elektro-
denproben wurden mittels REM und EDX untersucht und als Kathode in Testzellen verbaut.
Mit diesen wurden Ladekennlinien erstellt und eine zyklischer Voltametrie durchgeführt. Aus
den Ladekennlinien konnten die Kapazitäten und der Grad der Lithiuminsertation in die
Materialen bestimmt werden. Die zyklische Voltametrie lieferte nicht-reaktive Spannungsbe-
reiche der Materialien.

Für ein noch besseres Verständnis der Lithiumbewegung und -insertation wurde eine in-situ
NMR-Testzelle konzipiert, konstruiert, gebaut und getestet. Für den Test kam dabei eine
Lithium-Schwefel-Zelle zum Einsatz, für welche ein Di?usionskoe?zient sowie ein Spektrum
vor und nach einer 90 minütigen Ladezeit aufgenommen worden ist.

Abstract
--------
The all solid state electrolyte ceramics LATP, LAGP, LTO, and LLTO were successfully
synthesized and characterized by using XRD. MAS-NMR spectroscopy were not able to ge-
nerate additional information. All powders were processed to electrode slurries, casted on
aluminum foils and punched to electrode samples. Those samples were studied by SEM and
EDX and then build into battery test cells. The cells were analyzed by measuring the charge
curves as well as cyclic voltammetry. With the charge curves capacities and the amount of
lithium insertion were calculated. The cyclic voltammetry was able to detect non-reactive
voltage regions.

To be able to better understand lithium movement and insertion a novel in-situ NMR sample
cell was designed, constructed, built and tested. Therefore, a lithium-sulfur-cell was built into
the in-situ sample cell. With this setting a diffusion coeffcient as well as a NMR spectrum
before and after 90 minutes of charging were measured.

File: LiCoO2 vs Li_01_OCV_C01_loop0.txt
EC-Lab ASCII FILE
Nb header lines : 3
mode	error	time/s	Ewe/V
3	1	0,00	3,12883139
3	0	15,00	3,12877417
3	0	30,00	3,12862134
3	0	45,00	3,12846851
3	0	60,00	3,12831569
3	0	75,00	3,128335
3	0	90,00	3,12810564
3	0	105,00	3,12789559
3	0	120,00	3,12789559
3	0	135,00	3,12783837
3	0	150,00	3,1276474
3	0	165,00	3,12753296
3	0	180,00	3,12751389
3	0	195,00	3,12734199
3	0	210,00	3,12717009
3	0	225,00	3,12707472
3	0	240,00	3,12694097
3	0	255,00	3,12678814
3	0	270,00	3,12696004
3	0	285,00	3,12661624
3	0	300,00	3,12644458
3	0	315,00	3,12638712
3	0	330,00	3,12629175
3	0	345,00	3,12611985
3	0	360,00	3,12592888
3	0	375,00	3,12583351
3	0	390,00	3,12579536
3	0	405,00	3,12562346
3	0	420,00	3,12550879
3	0	435,00	3,12531781
3	0	450,00	3,12526059
3	0	465,00	3,12522244
3	0	480,00	3,12506962
3	0	495,00	3,12482142
3	0	510,00	3,1248405
3	0	525,00	3,1247642
3	0	540,00	3,12457323
3	0	555,00	3,12451601
3	0	570,00	3,12428665
3	0	585,00	3,12428665
3	0	600,00	3,12403846
3	0	615,00	3,12400031
3	0	630,00	3,12386656
3	0	645,00	3,12363744
3	0	660,00	3,1236949
3	0	675,00	3,12361836
3	0	690,00	3,12342739
3	0	705,00	3,1232748
3	0	720,00	3,1231792
3	0	735,00	3,1230073
3	0	750,00	3,12289286
3	0	765,00	3,12287378
3	0	780,00	3,12274003
3	0	795,00	3,1225872
3	0	810,00	3,12249184
3	0	825,00	3,12237716
3	0	840,00	3,1222055
3	0	855,00	3,12207174
3	0	870,00	3,1220336
3	0	885,00	3,12199545
3	0	900,00	3,12188077
3	0	915,00	3,12176633
3	0	930,00	3,12153721
3	0	945,00	3,12134624
3	0	960,00	3,12130785
3	0	975,00	3,12132716
3	0	990,00	3,12119341
3	0	1005,00	3,12096429
3	0	1020,00	3,12092614
3	0	1035,00	3,12073517
3	0	1050,00	3,12063956
3	0	1065,00	3,12062049
3	0	1080,00	3,12056327
3	0	1095,00	3,12035322
3	0	1110,00	3,1201241
3	0	1125,00	3,12000942
3	0	1140,00	3,11987591
3	0	1155,00	3,12000942
3	0	1170,00	3,11974216
3	0	1185,00	3,11955118
3	0	1200,00	3,11953211
3	0	1215,00	3,11941767
3	0	1230,00	3,11922669
3	0	1245,00	3,11922669
3	0	1260,00	3,11901665
3	0	1275,00	3,11892104
3	0	1290,00	3,11876822
3	0	1305,00	3,11874914
3	0	1320,00	3,11865377
3	0	1335,00	3,11834836
3	0	1350,00	3,11842465
3	0	1365,00	3,11827183
3	0	1380,00	3,11817646
3	0	1395,00	3,11796641
3	0	1410,00	3,11787081
3	0	1425,00	3,11773729
3	0	1440,00	3,11769891
3	0	1455,00	3,11750817
3	0	1470,00	3,11746979
3	0	1485,00	3,11735535
3	0	1500,00	3,11739349
3	0	1515,00	3,11701155
3	0	1530,00	3,11701155
3	0	1545,00	3,11701155
3	0	1560,00	3,11683965
3	0	1575,00	3,11666799
3	0	1590,00	3,11659145
3	0	1605,00	3,11649609
3	0	1620,00	3,11636233
3	0	1635,00	3,11624789
3	0	1650,00	3,11615229
3	0	1665,00	3,11605692
3	0	1680,00	3,11594224
3	0	1695,00	3,11575127
3	0	1710,00	3,11567497
3	0	1725,00	3,11556029
3	0	1740,00	3,11544585
3	0	1755,00	3,115484
3	0	1770,00	3,11525488
3	0	1785,00	3,11508298
3	0	1800,00	3,11504483
3	0	1815,00	3,11493015
3	0	1830,00	3,11485386
3	0	1845,00	3,11472011
3	0	1860,00	3,11456752
3	0	1875,00	3,11452937
3	0	1890,00	3,11443377
3	0	1905,00	3,11426187
3	0	1920,00	3,11422372
3	0	1935,00	3,11408997
3	0	1950,00	3,11387992
3	0	1965,00	3,11386085
3	0	1980,00	3,11378455
3	0	1995,00	3,1136508
3	0	2010,00	3,11359358
3	0	2025,00	3,11347914
3	0	2040,00	3,11326909
3	0	2055,00	3,11325002
3	0	2070,00	3,11315441
3	0	2085,00	3,11298251
3	0	2100,00	3,11292529
3	0	2115,00	3,11282992
3	0	2130,00	3,1126771
3	0	2145,00	3,11263895
3	0	2160,00	3,11246705
3	0	2175,00	3,11239052
3	0	2190,00	3,11237144
3	0	2205,00	3,11206603
3	0	2220,00	3,11212325
3	0	2235,00	3,11200881
3	0	2250,00	3,11195135
3	0	2265,00	3,11168408
3	0	2280,00	3,11156964
3	0	2295,00	3,11143589
3	0	2310,00	3,1113596
3	0	2325,00	3,11134052
3	0	2340,00	3,11120677
3	0	2355,00	3,11114955
3	0	2370,00	3,11107302
3	0	2385,00	3,11107302
3	0	2400,00	3,11080575
3	0	2415,00	3,11071038
3	0	2430,00	3,11061478
3	0	2445,00	3,11055756
3	0	2460,00	3,1104238
3	0	2475,00	3,11023283
3	0	2490,00	3,11023283
3	0	2505,00	3,11008024
3	0	2520,00	3,10994649
3	0	2535,00	3,10992742
3	0	2550,00	3,10983181
3	0	2565,00	3,10979366
3	0	2580,00	3,10958362
3	0	2595,00	3,10966015
3	0	2610,00	3,10941172
3	0	2625,00	3,10933542
3	0	2640,00	3,1091826
3	0	2655,00	3,10901093
3	0	2670,00	3,10899162
3	0	2685,00	3,10885811
3	0	2700,00	3,10885811
3	0	2715,00	3,10866714
3	0	2730,00	3,10860991
3	0	2745,00	3,10838079
3	0	2760,00	3,10838079
3	0	2775,00	3,10826612
3	0	2790,00	3,10811329
3	0	2805,00	3,10803699
3	0	2820,00	3,10788417
3	0	2835,00	3,10790324
3	0	2850,00	3,10759783
3	0	2865,00	3,10765505
3	0	2880,00	3,10750222
3	0	2895,00	3,10738778
3	0	2910,00	3,10740685
3	0	2925,00	3,10723495
3	0	2940,00	3,10723495
3	0	2955,00	3,10706306
3	0	2970,00	3,10689139
3	0	2985,00	3,10687232
3	0	3000,00	3,10675764
3	0	3015,00	3,10656667
3	0	3030,00	3,10654759
3	0	3045,00	3,10645223
3	0	3060,00	3,10622287
3	0	3075,00	3,10631847
3	0	3090,00	3,10620379
3	0	3105,00	3,10605121
3	0	3120,00	3,10584116
3	0	3135,00	3,10587931
3	0	3150,00	3,10584116
3	0	3165,00	3,10559297
3	0	3180,00	3,10555458
3	0	3195,00	3,10544014
3	0	3210,00	3,10540199
3	0	3225,00	3,10523009
3	0	3240,00	3,10524917
3	0	3255,00	3,10515356
3	0	3270,00	3,10494351
3	0	3285,00	3,10484815
3	0	3300,00	3,10479093
3	0	3315,00	3,10479093
3	0	3330,00	3,10465717
3	0	3345,00	3,10454273
3	0	3360,00	3,10431337
3	0	3375,00	3,10425615
3	0	3390,00	3,10417986
3	0	3405,00	3,10414171
3	0	3420,00	3,10400796
3	0	3435,00	3,10393167
3	0	3450,00	3,10379791
3	0	3465,00	3,10368347
3	0	3480,00	3,10360694
3	0	3495,00	3,10356879
3	0	3510,00	3,1034925
3	0	3525,00	3,10333967
3	0	3540,00	3,10333967
3	0	3555,00	3,10326338
3	0	3570,00	3,1030724
3	0	3585,00	3,10316777
3	0	3600,00	3,10291958

File: LiCoO2 vs Li_04_OCV_C01_loop0.txt
EC-Lab ASCII FILE
Nb header lines : 3
mode	error	time/s	Ewe/V
3	0	11041,14	3,15944052
3	0	11056,14	3,41659164
3	0	11071,14	3,46535993
3	0	11086,14	3,48938131
3	0	11101,14	3,50417995
3	0	11116,14	3,51445293
3	0	11131,14	3,52188087
3	0	11146,14	3,5275712
3	0	11161,14	3,53192472
3	0	11176,14	3,53557205
3	0	11191,14	3,53849339
3	0	11206,14	3,54091859
3	0	11221,14	3,54290438
3	0	11236,14	3,54464197
3	0	11251,14	3,5461123
3	0	11266,14	3,54741073
3	0	11281,14	3,54838467
3	0	11296,14	3,54939675
3	0	11311,14	3,55017948
3	0	11326,14	3,5509243
3	0	11341,14	3,55147791
3	0	11356,14	3,55208898
3	0	11371,14	3,55249
3	0	11386,14	3,55277658
3	0	11401,14	3,55321574
3	0	11416,14	3,5535593
3	0	11431,14	3,55361676
3	0	11446,14	3,5539794
3	0	11461,14	3,55411315
3	0	11476,14	3,55439949
3	0	11491,14	3,5544951
3	0	11506,14	3,55447602
3	0	11521,14	3,55478144
3	0	11536,14	3,55468607
3	0	11551,14	3,55476236
3	0	11566,14	3,55478144
3	0	11581,14	3,55474329
3	0	11596,14	3,55476236
3	0	11611,14	3,55481958
3	0	11626,14	3,55480051
3	0	11641,14	3,55478144
3	0	11656,14	3,55474329
3	0	11671,14	3,55455232
3	0	11686,14	3,55457139
3	0	11701,14	3,55445671
3	0	11716,14	3,55445671
3	0	11731,14	3,5543232
3	0	11746,14	3,55430412
3	0	11761,14	3,55424666
3	0	11776,14	3,55411315
3	0	11791,14	3,55401754
3	0	11806,14	3,55392218
3	0	11821,14	3,5538075
3	0	11836,14	3,55376935
3	0	11851,14	3,55367398
3	0	11866,14	3,55344486
3	0	11881,14	3,55346394
3	0	11896,14	3,55321574
3	0	11911,14	3,55312014
3	0	11926,14	3,55298662
3	0	11941,14	3,55289102
3	0	11956,14	3,55273819
3	0	11971,14	3,55262375
3	0	11986,14	3,55245185
3	0	12001,14	3,55239463
3	0	12016,14	3,55214643
3	0	12031,14	3,55208898
3	0	12046,14	3,551898
3	0	12061,14	3,55182171
3	0	12076,14	3,55163074
3	0	12091,14	3,55147791
3	0	12106,14	3,55143976
3	0	12121,14	3,55117249
3	0	12136,14	3,55113435
3	0	12151,14	3,55098152
3	0	12166,14	3,55079055
3	0	12181,14	3,55069518
3	0	12196,14	3,55052328
3	0	12211,14	3,55027509
3	0	12226,14	3,55014133
3	0	12241,14	3,55012226
3	0	12256,14	3,55000782
3	0	12271,14	3,54981685
3	0	12286,14	3,5496068
3	0	12301,14	3,5494349
3	0	12316,14	3,549263
3	0	12331,14	3,549263
3	0	12346,14	3,54899573
3	0	12361,14	3,5489192
3	0	12376,14	3,54876661
3	0	12391,14	3,54857564
3	0	12406,14	3,54832745
3	0	12421,14	3,54823184
3	0	12436,14	3,54807901
3	0	12451,14	3,54798365
3	0	12466,14	3,54765892
3	0	12481,14	3,54781175
3	0	12496,14	3,54758263
3	0	12511,14	3,54729629
3	0	12526,14	3,54733443
3	0	12541,14	3,54706717
3	0	12556,14	3,54700971
3	0	12571,14	3,54687619
3	0	12586,14	3,54670429
3	0	12601,14	3,54657054
3	0	12616,14	3,54632235
3	0	12631,14	3,54626513
3	0	12646,14	3,54605508
3	0	12661,14	3,5459404
3	0	12676,14	3,54580688
3	0	12691,14	3,54555869
3	0	12706,14	3,54555869
3	0	12721,14	3,54532957
3	0	12736,14	3,54523396
3	0	12751,14	3,5451386
3	0	12766,14	3,54485202
3	0	12781,14	3,54483294
3	0	12796,14	3,54475665
3	0	12811,14	3,54452753
3	0	12826,14	3,54443192
3	0	12841,14	3,54418373
3	0	12856,14	3,54406929
3	0	12871,14	3,54391646
3	0	12886,14	3,54382086
3	0	12901,14	3,54372549
3	0	12916,14	3,54351544
3	0	12931,14	3,54345822
3	0	12946,14	3,54338169
3	0	12961,14	3,54307628
3	0	12976,14	3,54309535
3	0	12991,14	3,54292345
3	0	13006,14	3,54275155
3	0	13021,14	3,54261804
3	0	13036,14	3,54248428
3	0	13051,14	3,54238892
3	0	13066,14	3,54223609
3	0	13081,14	3,54206419
3	0	13096,14	3,5419879
3	0	13111,14	3,5417397
3	0	13126,14	3,54160595
3	0	13141,14	3,54151058
3	0	13156,14	3,54133868
3	0	13171,14	3,54128122
3	0	13186,14	3,54110956
3	0	13201,14	3,54107118
3	0	13216,14	3,54089952
3	0	13231,14	3,54065132
3	0	13246,14	3,54063201
3	0	13261,14	3,54051757
3	0	13276,14	3,54040289
3	0	13291,14	3,54028845
3	0	13306,14	3,5400784
3	0	13321,14	3,54000187
3	0	13336,14	3,53979182
3	0	13351,14	3,53967738
3	0	13366,14	3,53952456
3	0	13381,14	3,53952456
3	0	13396,14	3,53937173
3	0	13411,14	3,53923821
3	0	13426,14	3,53902817
3	0	13441,14	3,53887534
3	0	13456,14	3,53879905
3	0	13471,14	3,53872252
3	0	13486,14	3,5387609
3	0	13501,14	3,53860807
3	0	13516,14	3,53843617
3	0	13531,14	3,53826427
3	0	13546,14	3,53818798
3	0	13561,14	3,53795886
3	0	13576,14	3,53797793
3	0	13591,14	3,53788233
3	0	13606,14	3,53771067
3	0	13621,14	3,53750062
3	0	13636,14	3,53744316
3	0	13651,14	3,53738594
3	0	13666,14	3,5372715
3	0	13681,14	3,53702307
3	0	13696,14	3,53694677
3	0	13711,14	3,53683233
3	0	13726,14	3,53679395
3	0	13741,14	3,53648853
3	0	13756,14	3,53643131
3	0	13771,14	3,53645039
3	0	13786,14	3,53633571
3	0	13801,14	3,53624034
3	0	13816,14	3,53610659
3	0	13831,14	3,53589654
3	0	13846,14	3,53585839
3	0	13861,14	3,5356102
3	0	13876,14	3,53549552
3	0	13891,14	3,53549552
3	0	13906,14	3,5352664
3	0	13921,14	3,53520918
3	0	13936,14	3,53513288
3	0	13951,14	3,53492284
3	0	13966,14	3,53488445
3	0	13981,14	3,53480816
3	0	13996,14	3,53463626
3	0	14011,14	3,53454089
3	0	14026,14	3,53452182
3	0	14041,14	3,53446436
3	0	14056,14	3,53417802
3	0	14071,14	3,53419709
3	0	14086,14	3,53408265
3	0	14101,14	3,53385353
3	0	14116,14	3,53385353
3	0	14131,14	3,53381515
3	0	14146,14	3,53362417
3	0	14161,14	3,53356695
3	0	14176,14	3,5333569
3	0	14191,14	3,53328061
3	0	14206,14	3,53329968
3	0	14221,14	3,53305149
3	0	14236,14	3,53299403
3	0	14251,14	3,53303242
3	0	14266,14	3,5328033
3	0	14281,14	3,53266954
3	0	14296,14	3,53266954
3	0	14311,14	3,53255486
3	0	14326,14	3,53242135
3	0	14341,14	3,53232574
3	0	14356,14	3,53215408
3	0	14371,14	3,53213477
3	0	14386,14	3,53202033
3	0	14401,14	3,5318675
3	0	14416,14	3,53177214
3	0	14431,14	3,53163838
3	0	14446,14	3,53154302
3	0	14461,14	3,53150463
3	0	14476,14	3,53140926
3	0	14491,14	3,53133297
3	0	14506,14	3,53129458
3	0	14521,14	3,53118014
3	0	14536,14	3,53093195
3	0	14551,14	3,53091288
3	0	14566,14	3,53068376
3	0	14581,14	3,53068376
3	0	14596,14	3,53064537
3	0	14611,14	3,53049278
3	0	14626,14	3,53053093
3	0	14641,14	3,53016806

File: LiCoO2 vs Li_05_GCPL_C01_loop1.txt
EC-Lab ASCII FILE
Nb header lines : 3
mode	ox/red	error	control changes	Ns changes	counter inc.	Ns	time/s	control/V/mA	Ewe/V	dq/mA.h	<I>/mA	P/W	(Q-Qo)/mA.h	x	Capacity/mA.h
1	0	0	1	1	0	1	86641,19	-0,100000001	3,78430223	0	0	0	0	0	0
1	0	0	1	0	0	1	87071,20	-0,100000001	3,46318316	-0,00027772546044778493	-0,099979190014349222	0,000346246234	-0,011940812751247997	0,00044552777834255539	0,011940812751247997
1	0	0	1	0	0	1	87501,20	-0,100000001	3,24924374	-0,00027772600773928899	-0,099979386891220339	0,000324857392	-0,023883013209484451	0,00089110733389864205	0,023883013209484451
1	0	0	1	0	0	1	87931,21	-0,100000001	3,01435733	-0,00027772540413050189	-0,099979169367938419	0,000301372929	-0,03582520683611095	0,001336686634558176	0,03582520683611095
1	0	0	1	0	0	1	88361,22	-0,100000001	2,77465892	-0,00027772754858227242	-0,099979941355317235	0,000277410232	-0,047767420671507226	0,0017822666892340813	0,047767420671507226
1	0	0	1	0	0	1	88791,23	-0,100000001	2,54509997	-0,00027772528684511779	-0,099979127147198554	0,000254456885	-0,059709649266136128	0,0022278472945968	0,059709649266136128
1	0	0	1	0	0	1	89221,24	-0,100000001	2,31559825	-0,00027772416102803414	-0,099978722098491085	0,000231510552	-0,071651828704924966	0,0026734260658890352	0,071651828704924966
1	0	0	1	0	0	1	89651,25	-0,100000001	2,02877378	-0,0002777238467464017	-0,099978609092021811	0,00020283398	-0,083593966155463962	0,0031190032705432147	0,083593966155463962
1	0	0	1	0	0	1	90081,25	-0,100000001	1,73516941	-0,00027772406652776733	-0,09997868821407767	0,000173479959	-0,09553608224187785	0,0035645796780731622	0,09553608224187785
1	0	0	1	0	0	1	90511,26	-0,100000001	1,53385186	-0,0002777231311057177	-0,099978351398961728	0,000153351983	-0,10747821570000744	0,0040101567337651795	0,10747821570000744
1	1	0	0	0	0	2	90924,42	0,100000001	2,60767317	0,0002778293925383025	0,10001660482741414	0,00026081063	-0,1022857902908721	0,0038164203604601274	0,0083348862414219302
1	1	0	0	0	0	2	91354,43	0,100000001	2,98825359	0,00027782992827354202	0,10001679768828915	0,000298875559	-0,090339117525555046	0,003370673937113783	0,020281559006738992
1	1	0	0	0	0	2	91784,44	0,100000001	3,24133754	0,00027782953035665882	0,10001665418954798	0,000324187742	-0,078392455038908749	0,0029249278972784646	0,032228221493385325
1	1	0	0	0	0	2	92214,45	0,100000001	3,42033315	0,00027782929314176237	0,10001656867394776	0,000342089974	-0,066445794830715405	0,0024791819424552883	0,044174881701578675
1	1	0	0	0	0	2	92644,46	0,100000001	3,53117919	0,00027782995187491178	0,10001680581319442	0,000353177253	-0,054499122307050464	0,0020334355281253091	0,056121554225243629
1	1	0	0	0	0	2	93074,47	0,100000001	3,60482812	0,00027783001236369213	0,1000168276585845	0,000360543461	-0,042552446552590272	0,001587688993250015	0,068068229979703795
1	1	0	0	0	0	2	93504,47	0,100000001	3,65783572	0,00027782925816045866	0,10001655642090962	0,000365844142	-0,030605779838989517	0,0011419427957013422	0,080014896693304563
1	1	0	0	0	0	2	93934,48	0,100000001	3,69850779	0,00027782893420341942	0,10001643983128117	0,000369911577	-0,01865912144752833	0,00069619690866288576	0,091961555084765773
1	1	0	0	0	0	2	94364,49	0,100000001	3,73041534	0,00027782869728406266	0,10001635454083389	0,00037310255	-0,006712470013205719	0,00025045128120462362	0,10390820651908837
1	1	0	0	0	0	2	94794,50	0,100000001	3,75550604	0,00027782823732205558	0,10001618878546435	0,000375611387	0,005234180195217399	-0,00019529430051368019	0,11585485672751152
1	1	0	0	0	0	2	95224,51	0,100000001	3,77519298	0,00027782873581598202	0,1000163680396136	0,000377581076	0,017180814150128166	-0,00064103927579158515	0,12780149068242227
1	1	0	0	0	0	2	95654,52	0,100000001	3,79123259	0,00027782867670307555	0,10001634675924237	0,000379185221	0,029127454161187488	-0,0010867844770325354	0,13974813069348149
1	1	0	0	0	0	2	96084,52	0,100000001	3,80448461	0,00027782884845096202	0,10001640858784162	0,000380510901	0,04107409114952761	-0,0015325295654917677	0,15169476768182157
1	1	0	0	0	0	2	96514,53	0,100000001	3,81582689	0,00027782915222272275	0,1000165182037401	0,000381645717	0,053020749077426925	-0,0019782754352341078	0,1636414256097209
1	1	0	0	0	0	2	96944,54	0,100000001	3,82573724	0,00027782966157504253	0,10001670167989094	0,000382637634	0,064967413749937818	-0,0024240215566269734	0,17558809028223171
1	1	0	0	0	0	2	97374,55	0,100000001	3,83503628	0,00027782898133579229	0,1000164567986001	0,000383566745	0,07691407045027703	-0,0028697673805673949	0,18753474698257085
1	1	0	0	0	0	2	97804,56	0,100000001	3,84391546	0,00027782909205017818	0,10001649656184563	0,000384454965	0,088860734764999488	-0,0033155134886106938	0,19948141129729325
1	1	0	0	0	0	2	98234,57	0,100000001	3,85216451	0,00027782904619309638	0,1000164797834997	0,000385279942	0,10080739617619592	-0,0037612594883195315	0,21142807270848966
1	1	0	0	0	0	2	98664,58	0,100000001	3,86014628	0,00027782950873093472	0,10001664628451581	0,000386078871	0,11275404872969466	-0,00420700515753576	0,22337472526198838
1	1	0	0	0	0	2	99094,58	0,100000001	3,86799431	0,00027782899515330794	0,10001646139906013	0,000386863103	0,12470071679366678	-0,0046527514054686048	0,23532139332596051
1	1	0	0	0	0	2	99524,59	0,100000001	3,87557483	0,00027782928236242797	0,10001656497393414	0,000387621694	0,13664736573964486	-0,0050984969400833862	0,24726804227193859
1	1	0	0	0	0	2	99954,60	0,100000001	3,88290739	0,00027782984894721043	0,1000167691313741	0,000388355838	0,14859404096506838	-0,0055442434552196102	0,25921471749736198
1	1	0	0	0	0	2	100384,61	0,100000001	3,8898387	0,00027782969209717386	0,1000167126666223	0,000389048888	0,16054071155769478	-0,0059899897974999462	0,27116138808998819
1	1	0	0	0	0	2	100814,62	0,100000001	3,89682746	0,00027782848645043037	0,1000162786282543	0,000389746187	0,1724873699267521	-0,0064357356837024845	0,28310804645904541
1	1	0	0	0	0	2	101244,63	0,100000001	3,90337706	0,00027782864063978192	0,1000163338652016	0,000390401459	0,18443401881653917	-0,006881481216220704	0,29505469534883277
1	1	0	0	0	0	2	101674,64	0,100000001	3,90975475	0,00027782938973026147	0,10001660344512016	0,000391040405	0,19638067388575962	-0,0073272269793018918	0,30700135041805306
1	1	0	0	0	0	2	102104,64	0,100000001	3,91582704	0,00027782937245981565	0,10001659722788254	0,000391647685	0,20832734016837699	-0,0077729731607699955	0,3189480167006704
1	1	0	0	0	0	2	102534,65	0,100000001	3,92161274	0,00027782940368188755	0,10001660857472405	0,000392226415	0,22027400818127946	-0,0082187194067973619	0,33089468471357312
1	1	0	0	0	0	2	102964,66	0,100000001	3,92737937	0,0002778297193605039	0,10001672248224595	0,000392803602	0,23222066915987238	-0,0086644653903651827	0,34284134569216614
1	1	0	0	0	0	2	103394,67	0,100000001	3,93350887	0,00027782906994140806	0,10001648869599146	0,000393415743	0,24416733154975558	-0,0091102114265901402	0,35478800808204922
1	1	0	0	0	0	2	103824,68	0,100000001	3,93992472	0,00027782927883664768	0,1000165638967916	0,000394057744	0,25611399545490755	-0,0095559575193518118	0,36673467198720109
1	1	0	0	0	0	2	104254,69	0,100000001	3,94656968	0,00027782933119394717	0,10001658253896173	0,000394722418	0,26806064369710819	-0,010001703027707712	0,37868132022940179
1	1	0	0	0	0	2	104684,69	0,100000001	3,95382571	0,00027782945387520723	0,10001662653567989	0,000395448296	0,28000731132135437	-0,010447449259233789	0,39062798785364794
1	1	0	0	0	0	2	105114,70	0,100000001	3,96136832	0,00027782872898172998	0,10001636557933152	0,000396201649	0,29195396642143584	-0,010893195023466443	0,40257464295372941
1	1	0	0	0	0	2	105544,71	0,100000001	3,96940732	0,00027782851928596698	0,10001629011814704	0,00039700538	0,30390059890243789	-0,011338939943750832	0,41452127543473146
1	1	0	0	0	0	2	105974,72	0,100000001	3,97798085	0,00027782914687775904	0,10001651631219221	0,000397863798	0,31584724807932646	-0,011784685486981194	0,42646792461162003
1	1	0	0	0	0	2	106404,73	0,100000001	3,98703194	0,00027782881525365846	0,10001639701021344	0,000398768578	0,32779388506171834	-0,012230430575218491	0,4384145615940119
1	1	0	0	0	0	2	106834,74	0,100000001	3,99703765	0,00027782855833984083	0,10001630452306677	0,000399768935	0,33974052821046138	-0,012676175893530637	0,45036120474275494
1	1	0	0	0	0	2	107264,75	0,100000001	4,00740623	0,00027782914542282618	0,1000165157406895	0,000400806806	0,35168716383364602	-0,013121920931054085	0,46230784036593958
1	1	0	0	0	0	2	107694,75	0,100000001	4,01863384	0,00027782917565604048	0,10001652637992384	0,000401929807	0,36363379092235418	-0,013567665650144738	0,47425446745464774
1	1	0	0	0	0	2	108124,76	0,100000001	4,03070211	0,00027782847370497053	0,10001627368253328	0,000403135811	0,37558042567748166	-0,014013410655279805	0,48620110220977523
1	1	0	0	0	0	2	108554,77	0,100000001	4,0438776	0,00027782948413698208	0,10001663743086786	0,00040445503	0,38752707332620493	-0,014459156141492266	0,4981477498584985
1	1	0	0	0	0	2	108984,78	0,100000001	4,0578742	0,00027782878971555168	0,1000163876571647	0,000405853905	0,39947373272874618	-0,014904902066255482	0,51009440926104013
1	1	0	0	0	0	2	109414,79	0,100000001	4,07324553	0,00027782903124598989	0,10001647476475187	0,000407391664	0,4114203664792512	-0,01535064703390673	0,52204104301154464
1	1	0	0	0	0	2	109844,80	0,100000001	4,0898962	0,00027782860502435101	0,10001632132799402	0,000409056374	0,42336699280493414	-0,015796391724527888	0,53398766933722771
1	1	0	0	0	0	2	110274,81	0,100000001	4,10832262	0,00027782826430847251	0,10001619862147158	0,000410898821	0,43531361824791667	-0,016242136382214307	0,54593429478021005
1	1	0	0	0	0	2	110704,81	0,100000001	4,12886906	0,0002778295139984952	0,10001664823144818	0,000412955647	0,44726024567068896	-0,016687881113769344	0,55788092220298227
1	1	0	0	0	0	2	111134,82	0,100000001	4,15229845	0,0002778295297767553	0,10001665385969712	0,000415299	0,45920691114019814	-0,017133627264899286	0,5698275876724912
1	1	0	0	0	0	2	111564,83	0,100000001	4,17876387	0,00027782937574966086	0,10001659841220342	0,000417945761	0,47115357608761978	-0,01757937339654944	0,58177425261991283
1	1	0	0	0	0	2	111882,07	0,100000001	4,19994116	0,00020098896351415251	0,10001664803026386	0,000420064025	0,4799672789027625	-0,017908224498731882	0,59058795543505638