Folder: thesis/Experimentelles/Rohdaten/Batterietests/AlteZelle/Studenten_Batterietests/LiCoO2 vs Li 300µm GCPL/ZView-Export

Note: README.md
# thesis

Zusammenfassung
---------------
Es konnten die Festkörperelektrolytkeramiken LATP, LAGP, LTO und LLTO hergestellt,
mit XRD und MAS-NMR charakterisiert und zu Elektrodensuspensionen weiterverarbeitet
werden. Aus den Daten der MAS-NMR konnten dabei gegenüber der XRD keine Mehrinfor-
mationen gewonnen werden. Die mit den Suspensionen gegossenen und gestanzten Elektro-
denproben wurden mittels REM und EDX untersucht und als Kathode in Testzellen verbaut.
Mit diesen wurden Ladekennlinien erstellt und eine zyklischer Voltametrie durchgeführt. Aus
den Ladekennlinien konnten die Kapazitäten und der Grad der Lithiuminsertation in die
Materialen bestimmt werden. Die zyklische Voltametrie lieferte nicht-reaktive Spannungsbe-
reiche der Materialien.

Für ein noch besseres Verständnis der Lithiumbewegung und -insertation wurde eine in-situ
NMR-Testzelle konzipiert, konstruiert, gebaut und getestet. Für den Test kam dabei eine
Lithium-Schwefel-Zelle zum Einsatz, für welche ein Di?usionskoe?zient sowie ein Spektrum
vor und nach einer 90 minütigen Ladezeit aufgenommen worden ist.

Abstract
--------
The all solid state electrolyte ceramics LATP, LAGP, LTO, and LLTO were successfully
synthesized and characterized by using XRD. MAS-NMR spectroscopy were not able to ge-
nerate additional information. All powders were processed to electrode slurries, casted on
aluminum foils and punched to electrode samples. Those samples were studied by SEM and
EDX and then build into battery test cells. The cells were analyzed by measuring the charge
curves as well as cyclic voltammetry. With the charge curves capacities and the amount of
lithium insertion were calculated. The cyclic voltammetry was able to detect non-reactive
voltage regions.

To be able to better understand lithium movement and insertion a novel in-situ NMR sample
cell was designed, constructed, built and tested. Therefore, a lithium-sulfur-cell was built into
the in-situ sample cell. With this setting a diffusion coeffcient as well as a NMR spectrum
before and after 90 minutes of charging were measured.

File: LiCoO2 vs Li 300µm GCPL_02_GCPL_C04.txt
EC-Lab ASCII FILE
Nb header lines : 83

Galvanostatic Cycling with Potential Limitation

Run on channel : 4 (SN 5435)
Grouped channel(s) : 4
User :
CE vs. WE compliance from -10 V to 10 V
Electrode connection : standard
Ewe ctrl range : min = 0,00 V, max = 5,00 V
Acquisition started on : 01.23.2015 15:04:13
Saved on :
	File : LiCoO2 vs Li 300µm GCPL_02_GCPL_C04.mpr
	Directory : C:\Hupfer\Studenten Batterietests\LiCoO2 vs Li 300µm GCPL\
	Host : 192.168.0.2
Device : VMP3 (SN 0324)
Address : 192.168.0.1
EC-Lab for windows v10.33 (software)
Internet server v10.33 (firmware)
Command interpretor v10.32 (firmware)
Electrode material : LiCoO2 vs Li
Initial state : charged
Electrolyte : LP30
Comments : 300µm
Mass of active material : 0,001 mg
 at x = 0,000
Molecular weight of active material (at x = 0) : 0,001 g/mol
Atomic weight of intercalated ion : 0,001 g/mol
Acquisition started at : xo = 0,000
Number of e- transfered per intercalated ion : 1
for DX = 1, DQ = 26,801 mA.h
Battery capacity : 0,000 A.h
Reference electrode : Li+/Li (-3,020 V)
Electrode surface area : 0,001 cm²
Characteristic mass : 0,001 g
Create one data file per loop
Ns                  0                   1                   2
Set I/C             I                   I                   I
Is                  0,000               -300,000            300,000
unit Is             mA                  µA                  µA
vs.                 <None>              <None>              <None>
N                   1                   1                   1
I sign              > 0                 > 0                 > 0
t1 (h:m:s)          0:00:0,0000         10:00:0,0000        10:00:0,0000
I Range             1 mA                1 mA                1 mA
Bandwidth           5                   5                   5
dE1 (mV)            0,00                0,00                0,00
dt1 (s)             0,0000              10,0000             10,0000
EM (V)              0,000               2,000               4,200
tM (h:m:s)          0:00:0,0000         0:00:0,0000         0:00:0,0000
Im                  0,000               0,000               0,000
unit Im             mA                  mA                  mA
E range min (V)     0,000               0,000               0,000
E range max (V)     5,000               5,000               5,000
dq                  0,000               1,000               1,000
unit dq             mA.h                mA.h                mA.h
dtq (s)             0,0000              120,0000            120,0000
dQM                 0,000               0,000               0,000
unit dQM            mA.h                mA.h                mA.h
dxM                 0,000               0,000               0,000
tR (h:m:s)          0:00:0,0000         0:00:0,0000         0:00:0,0000
dER/dt (mV/h)       0,0                 0,1                 0,1
dER (mV)            0,00                5,00                5,00
dtR (s)             1,0000              120,0000            120,0000
EL (V)              pass                4,200               4,200
goto Ns'            0                   0                   0
nc cycles           0                   0                   0

Number of loops : 11
Loop 0 from point number 0 to 771
Loop 1 from point number 772 to 2142
Loop 2 from point number 2143 to 3475
Loop 3 from point number 3476 to 4763
Loop 4 from point number 4764 to 5978
Loop 5 from point number 5979 to 7086
Loop 6 from point number 7087 to 8050
Loop 7 from point number 8051 to 8874
Loop 8 from point number 8875 to 9572
Loop 9 from point number 9573 to 10146
Loop 10 from point number 10147 to 10656

mode	ox/red	error	control changes	Ns changes	counter inc.	Ns	time/s	control/V/mA	Ewe/V	dq/mA.h	<I>/mA	P/W	(Q-Qo)/mA.h	x	Capacity/mA.h
1	0	0	1	1	0	1	3600,0009	-0,300000012	2,81476045	0	0	0	0	0	0
1	1	0	0	0	0	2	5383,6313	0,300000012	3,87864399	0,0008338501863645184	0,30018607072563744	0,00116431492	0,14312410437049038	-0,0053401527664679366	0,14592100705437197
1	1	0	0	0	0	2	7183,6313	0,300000012	3,89854121	0,0008338481427729129	0,30018533503265062	0,00117028493	0,2932159765506441	-0,010940282318177866	0,29601287923452563
1	1	0	0	0	0	2	8983,6312	0,300000012	3,97126269	0,00083383945452504691	0,30018220726338099	0,00119210244	0,44330690067308339	-0,016540376496579798	0,44610380335696493
1	1	0	0	0	0	2	10783,6312	0,300000012	4,14366102	0,00083384119438959488	0,30018283361462586	0,00124385592	0,59339807740684224	-0,022140480100249702	0,59619498009072397
1	0	0	1	0	0	1	12565,4048	-0,300000012	3,99932003	-0,0008329150410112407	-0,29984941839438157	0,00119919376	0,52862499058927616	-0,019723709142744854	0,10660809897163941
1	0	0	1	0	0	1	14365,4048	-0,300000012	3,83766198	-0,00083291451485951731	-0,29984922897975891	0,00115071994	0,37869967320574803	-0,01412979397443233	0,25653341635516707
1	0	0	1	0	0	1	16165,4048	-0,300000012	3,75891232	-0,00083291317622529126	-0,29984874707143168	0,00112710521	0,22877551658559674	-0,0085359221157620557	0,40645757297531834
1	0	0	1	0	0	1	17965,4047	-0,300000012	3,20608139	-0,00083291162216828915	-0,29984818761090413	0,000961337704	0,078851306144661376	-0,002942048248965968	0,55638178341625389
1	1	0	0	0	0	2	19750,4399	0,300000012	3,86338258	0,00083382874938680064	0,30017835341356563	0,00115970382	0,19518537882878714	-0,007282628913634953	0,13257861993225253
1	1	0	0	0	0	2	21550,4399	0,300000012	3,90968227	0,00083382921956810688	0,30017852267883795	0,00117360265	0,3452758821098007	-0,012882707389877461	0,2826691232132665
1	1	0	0	0	0	2	23350,4399	0,300000012	4,02385807	0,00083383782260451059	0,30018161977198074	0,00120788824	0,49536689227678694	-0,018482804778717123	0,43276013338025274
1	0	0	1	0	0	1	25134,7528	-0,300000012	4,11517429	-0,00083290710953043571	-0,29984656306125722	0,00123392092	0,61581343646736051	-0,022976827284568422	0,01415519732399147
1	0	0	1	0	0	1	26934,7528	-0,300000012	3,92383265	-0,00083291091563469837	-0,29984793325880832	0,00117655308	0,46588985150383738	-0,017382976755175549	0,1640787822875152
1	0	0	1	0	0	1	28734,7528	-0,300000012	3,81307173	-0,00083292866332994573	-0,29985432242917478	0,00114336598	0,31596572763898298	-0,011789106118649442	0,31400290615236941
1	0	0	1	0	0	1	30534,7528	-0,300000012	3,76478791	-0,00083290136953857203	-0,29984449666416128	0,00112885097	0,16604149203219494	-0,0061952313128815552	0,46392714175915789
1	1	0	0	0	0	2	32324,7276	0,300000012	3,88486314	0,00083383140614959936	0,30017930984818477	0,00116615556	0,13195718834596706	-0,0049235001155146944	0,057534138064290093
1	1	0	0	0	0	2	34124,7276	0,300000012	3,92998004	0,00083383053635060787	0,3001789925270919	0,00117969746	0,28204673353163917	-0,01052354284393184	0,20762368324996198
1	1	0	0	0	0	2	35924,7276	0,300000012	4,00590658	0,00083383467662334451	0,3001804830252743	0,00120249495	0,4321357204487177	-0,016123564742597158	0,35771267016704058
1	1	0	0	0	0	2	37724,7276	0,300000012	4,1277318	0,00083384314161870208	0,30018353042359738	0,00123907707	0,58222474794221107	-0,021723588155223069	0,50780169766053363
1	0	0	1	0	0	1	39512,2228	-0,300000012	3,98253226	-0,00083290183489355776	-0,29984466000317658	0,00119414099	0,52459694103627872	-0,019573417198152301	0,10327541531557013
[...]
1	0	0	1	0	0	1	75426,4615	-0,300000012	3,91017342	-0,00083290688470668262	-0,29984055250130618	0,0011724286	0,47688724932571578	-0,017793304454068464	0,094114406705989722
1	0	0	1	0	0	1	77226,4970	-0,300000012	3,74441385	-0,00083291344074904909	-0,29984291299554931	0,00112273591	0,32696296848328928	-0,012199427960498082	0,24403868754841645
1	0	0	1	0	0	1	79026,5326	-0,300000012	2,96956515	-0,00083293782855404749	-0,2998516927355321	0,000890429132	0,17703822657346403	-0,0066055342638831424	0,39396342945824192
1	1	0	0	0	0	2	80808,8070	0,300000012	4,01880264	0,00083386731968820096	0,3001863018166359	0,00120638951	0,26360791664716778	-0,0098355657947192422	0,11757438075021731
1	1	0	0	0	0	2	82608,8426	0,300000012	4,11502647	0,00083385355055332186	0,30018134502255738	0,00123525423	0,41370309028233792	-0,015435818528154694	0,26766955438538714
1	0	0	1	0	0	1	84390,8372	-0,300000012	3,92850637	-0,00083290054232544371	-0,29983826884152749	0,00117791654	0,48062163976109434	-0,017932639582153776	0,040808448613020563
1	0	0	1	0	0	1	86190,8727	-0,300000012	3,68105936	-0,00083291086430019802	-0,29984198468248493	0,00110373611	0,33069820267129658	-0,012338794570128413	0,19073188570281789
1	0	0	1	0	0	1	87990,9083	-0,300000012	2,48897862	-0,0008329265986018711	-0,29984764891564128	0,000746314414	0,18077543804799894	-0,0067449746487323098	0,34065465032611552
1	1	0	0	0	0	2	89775,8843	0,300000012	4,07357264	0,00083386993625925645	0,3001872441794519	0,00122283457	0,2987905843698503	-0,011148278431052379	0,13341902520679434
1	1	0	0	0	0	2	91575,9199	0,300000012	4,17015886	0,00083386859784689216	0,30018676200058317	0,00125182653	0,44888710700853005	-0,016748581497622525	0,28351554784547443
1	0	0	1	0	0	1	93365,5340	-0,300000012	3,76396775	-0,00083290994598799283	-0,29984165494831872	0,00112859427	0,38976735024521069	-0,014542743885424723	0,10410954743278216
1	0	0	1	0	0	1	95165,5696	-0,300000012	3,14658022	-0,0008329062163432439	-0,29984031192227514	0,000943471619	0,23984257979149123	-0,0089488491237987162	0,25403431788650166
1	1	0	0	0	0	2	96951,9770	0,300000012	4,05127144	0,00083386009982228275	0,30018370383146899	0,00121612567	0,26773122562623053	-0,009989411996575959	0,088389325651826138
1	1	0	0	0	0	2	98752,0126	0,300000012	4,1792779	0,0008338396683832009	0,30017634866180698	0,00125452038	0,41782485737672128	-0,015589607200220934	0,23848295740231706
1	0	0	1	0	0	1	100535,0371	-0,300000012	3,63909006	-0,00083291444043483994	-0,29984327317900109	0,00109115662	0,3214840414074439	-0,011995001824802491	0,12243528430471542
1	1	0	0	0	0	2	102318,7939	0,300000012	3,97208285	0,0008338698856482903	0,30018722554401037	0,00119236857	0,20458408982051699	-0,007633307457437719	0,015843495384663344
1	1	0	0	0	0	2	104118,8295	0,300000012	4,14970875	0,0008338539599759712	0,30018149259351206	0,00124566571	0,3546800487042809	-0,013233589489553979	0,16593945426842736
1	0	0	1	0	0	1	105900,7579	-0,300000012	3,62495399	-0,00083290964953435802	-0,29984154737237178	0,00108691177	0,31491976565026317	-0,011750079870539456	0,094115049513975962
1	1	0	0	0	0	2	107690,7516	0,300000012	4,00863457	0,00083386279397706189	0,30018467295276563	0,0012033307	0,22250175542387603	-0,0083018396516566643	0,028351280904905664
1	1	0	0	0	0	2	109490,7872	0,300000012	4,17954493	0,00083383955233130189	0,3001763057622327	0,00125460036	0,37259643808954374	-0,013902074066359862	0,17844596357057325
1	1	0	0	0	0	2	109850,6629	0,300000012	4,1999526	0,00082290848093397094	0,30018555829618234	0,00126076513	0,40260411174840486	-0,015021700716318301	0,20845363722943424

File: LiCoO2 vs Li 300µm GCPL_02_GCPL_C04_loop7.txt
EC-Lab ASCII FILE
Nb header lines : 3
mode	ox/red	error	control changes	Ns changes	counter inc.	Ns	time/s	control/V/mA	Ewe/V	dq/mA.h	<I>/mA	P/W	(Q-Qo)/mA.h	x	Capacity/mA.h
1	0	0	1	1	0	1	83900,83	-0,300000012	4,18333626	0	0	0	0	0	0
1	0	0	1	0	0	1	84040,83	-0,300000012	4,01687098	-0,00083292585967150003	-0,29984738342257632	0,00120444829	-0,01165668253653027	0,00043492649801430048	0,01165668253653027
1	0	0	1	0	0	1	84180,83	-0,300000012	3,97831631	-0,00083291203086243738	-0,29984240463659059	0,00119286787	-0,023317482977295357	0,00087000664057218291	0,023317482977295357
1	0	0	1	0	0	1	84320,84	-0,300000012	3,94304299	-0,00083290642060505024	-0,2998403860977664	0,00118228351	-0,034978128780332979	0,001305081013388541	0,034978128780332979
1	0	0	1	0	0	1	84460,84	-0,300000012	3,91507626	-0,00083291169726517466	-0,29984228475338291	0,00117390545	-0,046638850411235744	0,0017401582154444995	0,046638850411235744
1	0	0	1	0	0	1	84600,84	-0,300000012	3,89327121	-0,00083291613650156403	-0,29984388263746304	0,0011673735	-0,058299684341744704	0,002175239607549753	0,058299684341744704
1	0	0	1	0	0	1	84740,84	-0,300000012	3,87081766	-0,00083290941746201766	-0,29984146494451866	0,00116063165	-0,06996048448887081	0,0026103197391515706	0,06996048448887081
1	0	0	1	0	0	1	84880,85	-0,300000012	3,85036731	-0,00083290019209351795	-0,29983814276401677	0,00115448702	-0,08162116849800393	0,0030453955374887206	0,08162116849800393
1	0	0	1	0	0	1	85020,85	-0,300000012	3,83172894	-0,00083290709357294771	-0,299840627554672	0,00114890805	-0,093281925977888448	0,0034804740771183878	0,093281925977888448
1	0	0	1	0	0	1	85160,85	-0,300000012	3,81518936	-0,00083291905213561318	-0,29984493335847174	0,00114396517	-0,10494266320524554	0,0039155518610990272	0,10494266320524554
1	0	0	1	0	0	1	85300,86	-0,300000012	3,79983234	-0,00083290146888461376	-0,2998386023997264	0,00113933638	-0,11660334635975568	0,0043506276275490432	0,11660334635975568
1	0	0	1	0	0	1	85440,86	-0,300000012	3,78525758	-0,00083291471914284762	-0,29984337300925946	0,00113498443	-0,12826413494488706	0,0047857073277572928	0,12826413494488706
1	0	0	1	0	0	1	85580,86	-0,300000012	3,76787853	-0,00083291256659395162	-0,2998425986096119	0,00112977054	-0,13992484874548294	0,0052207842376539731	0,13992484874548294
1	0	0	1	0	0	1	85720,86	-0,300000012	3,75027037	-0,0008328994692315657	-0,29983788253187635	0,00112447317	-0,15158544659895805	0,0056558568214076851	0,15158544659895805
1	0	0	1	0	0	1	85860,87	-0,300000012	3,7317276	-0,00083290071044531136	-0,29983833028497786	0,00111891492	-0,16324610765508915	0,0060909317633374682	0,16324610765508915
1	0	0	1	0	0	1	86000,87	-0,300000012	3,71127725	-0,00083289026598632346	-0,29983457049366547	0,00111276924	-0,17490668897137968	0,0065260037300665894	0,17490668897137968
1	0	0	1	0	0	1	86140,87	-0,300000012	3,68853736	-0,0008329114183634519	-0,29984218414131398	0,00110597908	-0,18656731630795293	0,0069610774138743334	0,18656731630795293
1	0	0	1	0	0	1	86280,87	-0,300000012	3,66781974	-0,00083289351770612928	-0,29983574114551021	0,00109974341	-0,1982280097771743	0,007396153565180096	0,1982280097771743
1	0	0	1	0	0	1	86420,88	-0,300000012	3,6392808	-0,00083289981834755994	-0,29983800895811827	0,00109119469	-0,2098886186078895	0,0078312265585093952	0,2098886186078895
1	0	0	1	0	0	1	86560,88	-0,300000012	3,6080327	-0,00083289506035877606	-0,29983629537602387	0,00108181918	-0,2215492397537671	0,008266300011333961	0,2215492397537671
1	0	0	1	0	0	1	86700,88	-0,300000012	3,58170652	-0,00083289527753988902	-0,29983637467358048	0,00107392587	-0,23320980974098637	0,0087013715553601997	0,23320980974098637
1	0	0	1	0	0	1	86840,89	-0,300000012	3,53584552	-0,00083290625349846144	-0,29984032527345536	0,0010601891	-0,2448704269583135	0,0091364448616052672	0,2448704269583135
1	0	0	1	0	0	1	86980,89	-0,300000012	3,4904232	-0,00083290804252359603	-0,29984096886298618	0,00104657188	-0,25653111089442438	0,0095715206572178586	0,25653111089442438
1	0	0	1	0	0	1	87120,89	-0,300000012	3,43834329	-0,0008329122186518377	-0,29984247335292614	0,0010309614	-0,26819183640980317	0,010006598004208838	0,26819183640980317
1	0	0	1	0	0	1	87260,89	-0,300000012	3,35438561	-0,0008329198757956425	-0,2998452288893673	0,00100579648	-0,27985256248447226	0,010441675372067694	0,27985256248447226
1	0	0	1	0	0	1	87400,90	-0,300000012	3,25781798	-0,0008328973664293687	-0,29983712562531002	0,000976814772	-0,29151325408314586	0,010876751453580803	0,29151325408314586
1	0	0	1	0	0	1	87540,90	-0,300000012	3,15987682	-0,00083289519716799258	-0,29983634573983322	0,000947445922	-0,30317388313764922	0,011311825201486829	0,30317388313764922
1	0	0	1	0	0	1	87680,90	-0,300000012	3,03021073	-0,00083290363746550349	-0,29983938307341645	0,000908576534	-0,31483444752126195	0,011746896536434978	0,31483444752126195
1	0	0	1	0	0	1	87820,90	-0,300000012	2,8416543	-0,00083290522572894899	-0,29983995522440429	0,00085204147	-0,32649516502939424	0,012181973584664824	0,32649516502939424
1	0	0	1	0	0	1	87960,91	-0,300000012	2,56147099	-0,00083293400224712154	-0,2998503152922592	0,000768057886	-0,33815587759402989	0,012617050448446166	0,33815587759402989
1	0	0	1	0	0	1	88100,91	-0,300000012	2,20524716	-0,00083290457865761382	-0,2998397218958793	0,000661220693	-0,34981672622583744	0,013052132389076637	0,34981672622583744
1	1	0	0	0	0	2	88225,85	0,300000012	3,73110294	0,00083385858777662131	0,30018315950535072	0,00112001423	-0,35188919096489024	0,013129458834949174	0,0041693382461683616
1	1	0	0	0	0	2	88365,86	0,300000012	3,95668793	0,00083384601934585306	0,30017863384495034	0,00118771323	-0,34021514074519546	0,012693884325324907	0,015843388465863136
1	1	0	0	0	0	2	88505,86	0,300000012	3,96975565	0,00083387406047681971	0,30018872906456518	0,0011916759	-0,3285409911101072	0,012258306106378645	0,027517538100951251
1	1	0	0	0	0	2	88645,86	0,300000012	3,98164058	0,00083386953262653606	0,30018709957695264	0,00119523716	-0,31686680702145818	0,011822726601923707	0,039191722189600262
1	1	0	0	0	0	2	88785,86	0,300000012	3,99270511	0,00083386930693851571	0,30018701721260922	0,00119855825	-0,30519271738524	0,011387150621615957	0,05086581182581849
1	1	0	0	0	0	2	88925,87	0,300000012	4,00148058	0,0008338796976672279	0,30019075872009453	0,00120120752	-0,29351852569255501	0,010951570833444213	0,06254000351850359
1	1	0	0	0	0	2	89065,87	0,300000012	4,01340389	0,00083386239942080448	0,30018453160374432	0,00120476179	-0,28184433862051638	0,010515991217674997	0,074214190590542234
1	1	0	0	0	0	2	89205,87	0,300000012	4,02750158	0,00083386752376125914	0,3001863752814848	0,00120900106	-0,27017020130809078	0,010080413458503846	0,085888327902967744
1	1	0	0	0	0	2	89345,88	0,300000012	4,03923416	0,0008338628390828768	0,30018468994535878	0,00121251622	-0,25849609144513075	0,009644836723509161	0,097562437765927795
1	1	0	0	0	0	2	89485,88	0,300000012	4,05254984	0,00083387316812243725	0,30018840795219904	0,00121652847	-0,24682191997445709	0,009209257689847849	0,10923660923660131
1	1	0	0	0	0	2	89625,88	0,300000012	4,06132507	0,00083386627747284045	0,30018592662302726	0,00121915259	-0,23514763906467712	0,0087736745728663386	0,12091089014638134
1	1	0	0	0	0	2	89765,88	0,300000012	4,07315254	0,000833857959550288	0,30018293334833997	0,00122269092	-0,22347337394052336	0,0083380920448677645	0,13258515527053507
1	1	0	0	0	0	2	89905,89	0,300000012	4,08141327	0,0008338851240211063	0,30019271169711059	0,00122521049	-0,21179907910914976	0,0079025084084528768	0,14425945010190867
1	1	0	0	0	0	2	90045,89	0,300000012	4,09245872	0,00083387569619218522	0,3001893172949737	0,00122851238	-0,2001248152307248	0,0074669259269341197	0,15593371398033366
1	1	0	0	0	0	2	90185,89	0,300000012	4,10142469	0,0008338580604924096	0,30018296968678573	0,00123117783	-0,18845064921131488	0,0070313470966667878	0,16760787999974355
1	1	0	0	0	0	2	90325,90	0,300000012	4,1096468	0,00083386160590747994	0,30018424502203526	0,00123365119	-0,17677660832540781	0,0065957729352986893	0,17928192088565062
1	1	0	0	0	0	2	90465,90	0,300000012	4,11838436	0,00083388557204273011	0,30019287261477082	0,00123630965	-0,16510246404323734	0,0061601949160769869	0,19095606516782109
1	1	0	0	0	0	2	90605,90	0,300000012	4,12700701	0,00083386137990487949	0,30018416465515494	0,00123886217	-0,15342828678168614	0,0057246156663502483	0,20263024242937229
1	1	0	0	0	0	2	90745,90	0,300000012	4,13587761	0,0008338588585389984	0,30018325586312717	0,00124152121	-0,14175421230711638	0,005289040251743984	0,21430431690394205
1	1	0	0	0	0	2	90885,91	0,300000012	4,14469147	0,0008338739386383031	0,30018868497991238	0,00124418945	-0,13007994871796934	0,0048534577810185766	0,22597858049308909
1	1	0	0	0	0	2	91025,91	0,300000012	4,15304708	0,00083388177015715174	0,30019150500091622	0,00124670949	-0,11840571797278459	0,004417876535745559	0,23765281123827382
1	1	0	0	0	0	2	91165,91	0,300000012	4,15856028	0,00083388173862132762	0,3001914925299655	0,00124836445	-0,10673153917900987	0,0039822972288495002	0,24932699003204858
1	1	0	0	0	0	2	91305,91	0,300000012	4,15484047	0,00083388024411102131	0,30019095521231738	0,00124724559	-0,09505730398707689	0,003546715817662329	0,2610012252239816
1	1	0	0	0	0	2	91445,92	0,300000012	4,16319609	0,00083386077804532326	0,30018394798999635	0,00124972465	-0,083383182196063462	0,0031111386376159347	0,27267534701499501
1	1	0	0	0	0	2	91585,92	0,300000012	4,17071247	0,00083387052188648115	0,30018745458173741	0,00125199556	-0,07170911084369751	0,0026755633395032931	0,28434941836736093
1	1	0	0	0	0	2	91725,92	0,300000012	4,17784691	0,00083386561199194842	0,30018568804709421	0,00125412981	-0,060034940285561139	0,0022399843398899741	0,29602358892549734
1	1	0	0	0	0	2	91865,93	0,300000012	4,18618393	0,00083387257324324723	0,30018819402357606	0,00125664298	-0,048360787330148282	0,0018044059970579363	0,30769774188091014
1	1	0	0	0	0	2	92005,93	0,300000012	4,19423437	0,00083388664396438323	0,30019325841506758	0,00125908083	-0,036686592085332659	0,001368826076351423	0,31937193712572576
1	1	0	0	0	0	2	92115,46	0,300000012	4,2000289	0,00079454639983342758	0,30019391620699878	0,0012608231	-0,027553190696121242	0,0010280465905311734	0,32850533851493722