Folder: thesis/Experimentelles/Rohdaten/Batterietests/AlteZelle/Studenten_Batterietests/S vs Li GCPL 200µm/ECLab-Export (part 2)

File: S vs Li GCPL 200µm_04_OCV_C05_loop0.mpt
EC-Lab ASCII FILE
Nb header lines : 3
mode	error	time/s	Ewe/V
3	0	140059,72	3,00970459
3	0	140119,72	2,69411516
3	0	140179,72	2,5995338
3	0	140239,72	2,56327033
3	0	140299,72	2,54167247
3	0	140359,72	2,52862597
3	0	140419,72	2,52045536
3	0	140479,72	2,51458931
3	0	140539,72	2,51087546
3	0	140599,72	2,50759959
3	0	140659,72	2,5051806
3	0	140719,72	2,50350451
3	0	140779,72	2,50196195
3	0	140839,72	2,50013351
3	0	140899,72	2,4994669
3	0	140959,72	2,4985528
3	0	141019,72	2,49761939
3	0	141079,72	2,4971242
3	0	141139,72	2,496629
3	0	141199,72	2,49624825
3	0	141259,72	2,49581003
3	0	141319,72	2,49533391
3	0	141379,72	2,49504828
3	0	141439,72	2,49487686
3	0	141499,72	2,49470544
3	0	141559,72	2,49432445
3	0	141619,72	2,49419117
3	0	141679,72	2,49419117
3	0	141739,72	2,49405789
3	0	141799,72	2,49403882
3	0	141859,72	2,4938674
3	0	141919,72	2,49375319
3	0	141979,72	2,49390554
3	0	142039,72	2,4936769
3	0	142099,72	2,49390554
3	0	142159,72	2,49377227
3	0	142219,72	2,49384832
3	0	142279,72	2,4936769
3	0	142339,72	2,49363899
3	0	142399,72	2,49361992
3	0	142459,72	2,49451494
3	0	142519,72	2,50262856
3	0	142579,72	2,60416174
3	0	142639,72	2,53485394
3	0	142699,72	2,54470086
3	0	142759,72	2,5271976
3	0	142819,72	2,59911466
3	0	142879,72	2,6564045
3	0	142939,72	2,66598463
3	0	142999,72	2,66764164
3	0	143059,72	2,66840339
3	0	143119,72	2,66849852
3	0	143179,72	2,66632748
3	0	143239,72	2,66676545
3	0	143299,72	2,66280389
3	0	143359,72	2,6579473
3	0	143419,72	2,65657592
3	0	143479,72	2,65392852
3	0	143539,72	2,64941478
3	0	143599,72	2,61936045
3	0	143659,72	2,58955359
3	0	143719,72	2,60637116
3	0	143779,72	2,65480471
3	0	143839,72	2,64703393
3	0	143899,72	2,65297627
3	0	143959,72	2,65516663
3	0	144019,72	2,65789008
3	0	144079,72	2,65059543
3	0	144139,72	2,55647111
3	0	144199,72	2,5069139
3	0	144259,72	2,50049543
3	0	144319,72	2,50247622
3	0	144379,72	2,64326286
3	0	144439,72	2,65259528
3	0	144499,72	2,65248108
3	0	144559,72	2,61918902
3	0	144619,72	2,54988122
3	0	144679,72	2,62356949
3	0	144739,72	2,64552927
3	0	144799,72	2,66297531
3	0	144859,72	2,66642261
3	0	144919,72	2,66133738
3	0	144979,72	2,65811872
3	0	145039,72	2,63855863
3	0	145099,72	2,61796999
3	0	145159,72	2,57504082
3	0	145219,72	2,51693201
3	0	145279,72	2,63097835
3	0	145339,72	2,62240767
3	0	145399,72	2,57757378
3	0	145459,72	2,51104689
3	0	145519,72	2,1310823
3	0	145579,72	0,878495395
3	0	145639,72	-0,295921564
3	0	145699,72	-0,9092924
3	0	145759,72	-2,12271643
3	0	145819,72	-3,3961966
3	0	145879,72	-4,43616819
3	0	145939,72	-5,2289505
3	0	145999,72	-6,81772184
3	0	146059,72	-7,51559925
3	0	146119,72	-8,43039989
3	0	146179,72	-9,35118961
3	0	146239,72	-10,6421738
3	0	146299,72	-11,3158054
3	0	146359,72	-12,3992453
3	0	146419,72	-12,8582888
3	0	146479,72	-13,4678135
3	0	146539,72	-13,4661331
3	0	146599,72	-13,4663734
3	0	146659,72	-13,4652529
3	0	146719,72	-13,4666939
3	0	146779,72	-13,4666138
3	0	146839,72	-13,4668531
3	0	146899,72	-13,4665337
3	0	146959,72	-13,4637327
3	0	147019,72	-13,4662132
3	0	147079,72	-13,4659729
3	0	147139,72	-13,4658937
3	0	147199,72	-13,4656534
3	0	147259,72	-13,4655733
3	0	147319,72	-13,4666138
3	0	147379,72	-13,466774
3	0	147439,72	-13,4648533
3	0	147499,72	-13,4664936
3	0	147559,72	-13,4665337
3	0	147619,72	-13,4649334
3	0	147679,72	-13,4673738
3	0	147739,72	-13,4652128
3	0	147799,72	-13,4648933
3	0	147859,72	-13,4668131
3	0	147919,72	-13,4665737
3	0	147979,72	-13,4661732
3	0	148039,72	-13,4662132
3	0	148099,72	-13,4664536
3	0	148159,72	-13,4655333
3	0	148219,72	-13,4666939
3	0	148279,72	-13,4656534
3	0	148339,72	-13,4665737
3	0	148399,72	-13,4656134
3	0	148459,72	-13,4655333
3	0	148519,72	-13,467494
3	0	148579,72	-13,4656134
3	0	148639,72	-13,4665337
3	0	148699,72	-13,4656134
3	0	148759,72	-13,4650135
3	0	148819,72	-13,4668131
3	0	148879,72	-13,4652529
3	0	148939,72	-13,4666939
3	0	148999,72	-13,4658937
3	0	149059,72	-13,4666138
3	0	149119,72	-13,4664936
3	0	149179,72	-13,4655733
3	0	149239,72	-13,465333
3	0	149299,72	-13,4672136
3	0	149359,72	-13,467454
3	0	149419,72	-13,4672537
3	0	149479,72	-13,4669733
3	0	149539,72	-13,4663334
3	0	149599,72	-13,4667339
3	0	149659,72	-13,4661732
3	0	149719,72	-13,4650526
3	0	149779,72	-13,4664135
3	0	149839,72	-13,4671736
3	0	149899,72	-13,467454
3	0	149959,72	-13,4652529
3	0	150019,72	-13,4666939
3	0	150079,72	-13,4661331
3	0	150139,72	-13,4658136
3	0	150199,72	-13,4656534
3	0	150259,72	-13,4662132
3	0	150319,72	-13,4656534
3	0	150379,72	-13,4675341
3	0	150439,72	-13,4658136
3	0	150499,72	-13,4656134
3	0	150559,72	-13,4672537
3	0	150619,72	-13,4665337
3	0	150679,72	-13,4664135
3	0	150739,72	-13,4659328
3	0	150799,72	-13,4667339
3	0	150859,72	-13,4652929